loc1,loc2,loc3,loc4,loc5,loc6,loc7,loc8,loc9,loc10,loc11,loc12,loc13,loc14,corrAns,loc15,loc16,loc17,loc18,loc19,loc20,loc21,loc22,loc23,loc24,loc25,loc26,loc27,loc28,loc29,loc30,loc31,loc32,loc33,loc34,loc35,loc36,loc37,loc38,trials1.thisRepN,trials1.thisTrialN,trials1.thisN,trials1.thisIndex,trials2.thisRepN,trials2.thisTrialN,trials2.thisN,trials2.thisIndex,trials3.thisRepN,trials3.thisTrialN,trials3.thisN,trials3.thisIndex,instr1.started,instr1.stopped,keyResp1.keys,keyResp1.rt,keyResp1.started,keyResp1.stopped,l1ex.started,l1ex.stopped,l2ex.started,l2ex.stopped,t1ex.started,t1ex.stopped,tTex.started,tTex.stopped,trial1Fix.started,trial1Fix.stopped,trial1L11.started,trial1L11.stopped,trial1L12.started,trial1L12.stopped,trial1L21.started,trial1L21.stopped,trial1L22.started,trial1L22.stopped,trial1T11.started,trial1T11.stopped,trial1T12.started,trial1T12.stopped,trial1TT.started,trial1TT.stopped,trial1Resp.keys,trial1Resp.corr,trial1Resp.started,trial1Resp.stopped,breakText1.started,breakText1.stopped,breakResp1.keys,breakResp1.rt,breakResp1.started,breakResp1.stopped,trial2Fix.started,trial2Fix.stopped,trial2L11.started,trial2L11.stopped,trial2L12.started,trial2L12.stopped,trial2L21.started,trial2L21.stopped,trial2L22.started,trial2L22.stopped,trial2T11.started,trial2T11.stopped,trial2T12.started,trial2T12.stopped,trial2L13.started,trial2L13.stopped,trial2L14.started,trial2L14.stopped,trial2L23.started,trial2L23.stopped,trial2L24.started,trial2L24.stopped,trial2T13.started,trial2T13.stopped,trial2T14.started,trial2T14.stopped,trial2TT.started,trial2TT.stopped,trial2Resp.keys,trial2Resp.corr,trial2Resp.started,trial2Resp.stopped,breakText2.started,breakText2.stopped,breakResp2.keys,breakResp2.rt,breakResp2.started,breakResp2.stopped,trial3Fix.started,trial3Fix.stopped,trial3L11.started,trial3L11.stopped,trial3L12.started,trial3L12.stopped,trial3L21.started,trial3L21.stopped,trial3L22.started,trial3L22.stopped,trial3T11.started,trial3T11.stopped,trial3T12.started,trial3T12.stopped,trial3L13.started,trial3L13.stopped,trial3L14.started,trial3L14.stopped,trial3L23.started,trial3L23.stopped,trial3L24.started,trial3L24.stopped,trial3T13.started,trial3T13.stopped,trial3T14.started,trial3T14.stopped,trial3L15.started,trial3L15.stopped,trial3L16.started,trial3L16.stopped,trial3L25.started,trial3L25.stopped,trial3L26.started,trial3L26.stopped,trial3T15.started,trial3T15.stopped,trial3T16.started,trial3T16.stopped,trial3TT.started,trial3TT.stopped,trial3Resp.keys,trial3Resp.corr,trial3Resp.started,trial3Resp.stopped,thanks.started,thanks.stopped,participant,session,date,expName,psychopyVersion,frameRate,
,,,,,,,,,,,,,,,,,,,,,,,,,,,,,,,,,,,,,,,,,,,,,,,,,,,33.57166770007461,None,space,1.1376801999285817,33.57166770007461,None,,,,,,,,,,,,,,,,,,,,,,,,,,,,,,,,,,,,,,,,,,,,,,,,,,,,,,,,,,,,,,,,,,,,,,,,,,,,,,,,,,,,,,,,,,,,,,,,,,,,,,,,,,,,,,,,,,,,,,,a,001,2020_Jun_02_1611,vSearchAlpha4,2020.1.3,60.43555908413729,
0.4,0.0,-0.2,0.2,0.0,0.0,-0.4,-0.2,0.4,0.2,0.0,0.2,None,None,m,,,,,,,,,,,,,,,,,,,,,,,,,0,0,0,0,,,,,,,,,,,,,,,33.57166770007461,None,33.57166770007461,None,33.57166770007461,None,33.57166770007461,None,34.923045499948785,35.94497890002094,35.91577639989555,None,35.91577639989555,None,35.91577639989555,None,35.91577639989555,None,35.91577639989555,None,35.91577639989555,None,35.91577639989555,None,None,0,35.91577639989555,None,,,,,,,,,,,,,,,,,,,,,,,,,,,,,,,,,,,,,,,,,,,,,,,,,,,,,,,,,,,,,,,,,,,,,,,,,,,,,,,,,,,,,,,,,,,a,001,2020_Jun_02_1611,vSearchAlpha4,2020.1.3,60.43555908413729,
0.4,-0.2,0.4,0.0,0.2,0.2,None,None,0.0,0.4,-0.2,0.2,0.4,0.2,b,,,,,,,,,,,,,,,,,,,,,,,,,0,1,1,1,,,,,,,,,,,,,,,,,,,,,,,38.756170799955726,39.765270499978215,39.74603500007652,None,39.74603500007652,None,39.74603500007652,None,39.74603500007652,None,39.74603500007652,None,39.74603500007652,None,39.74603500007652,None,None,0,39.74603500007652,None,,,,,,,,,,,,,,,,,,,,,,,,,,,,,,,,,,,,,,,,,,,,,,,,,,,,,,,,,,,,,,,,,,,,,,,,,,,,,,,,,,,,,,,,,,,a,001,2020_Jun_02_1611,vSearchAlpha4,2020.1.3,60.43555908413729,
0.0,0.2,0.4,-0.2,-0.4,-0.2,0.0,-0.4,0.2,0.2,None,None,0.2,-0.2,b,,,,,,,,,,,,,,,,,,,,,,,,,0,2,2,2,,,,,,,,,,,,,,,,,,,,,,,42.748068100074306,43.76377439987846,43.74480800004676,None,43.74480800004676,None,43.74480800004676,None,43.74480800004676,None,43.74480800004676,None,43.74480800004676,None,43.74480800004676,None,None,0,43.74480800004676,None,,,,,,,,,,,,,,,,,,,,,,,,,,,,,,,,,,,,,,,,,,,,,,,,,,,,,,,,,,,,,,,,,,,,,,,,,,,,,,,,,,,,,,,,,,,a,001,2020_Jun_02_1611,vSearchAlpha4,2020.1.3,60.43555908413729,
-0.2,0.2,0.4,-0.2,0.0,-0.2,0.0,0.2,-0.4,-0.2,0.0,0.0,None,None,m,,,,,,,,,,,,,,,,,,,,,,,,,0,3,3,3,,,,,,,,,,,,,,,,,,,,,,,46.74646020005457,47.76359899993986,47.74427850008942,None,47.74427850008942,None,47.74427850008942,None,47.74427850008942,None,47.74427850008942,None,47.74427850008942,None,47.74427850008942,None,None,0,47.74427850008942,None,,,,,,,,,,,,,,,,,,,,,,,,,,,,,,,,,,,,,,,,,,,,,,,,,,,,,,,,,,,,,,,,,,,,,,,,,,,,,,,,,,,,,,,,,,,a,001,2020_Jun_02_1611,vSearchAlpha4,2020.1.3,60.43555908413729,
0.4,-0.2,None,None,-0.4,0.0,0.4,0.2,0.0,0.2,0.2,-0.2,0.0,0.0,b,,,,,,,,,,,,,,,,,,,,,,,,,0,4,4,4,,,,,,,,,,,,,,,,,,,,,,,50.746528999879956,51.76091620000079,51.74300440005027,None,51.74300440005027,None,51.74300440005027,None,51.74300440005027,None,51.74300440005027,None,51.74300440005027,None,51.74300440005027,None,None,0,51.74300440005027,None,,,,,,,,,,,,,,,,,,,,,,,,,,,,,,,,,,,,,,,,,,,,,,,,,,,,,,,,,,,,,,,,,,,,,,,,,,,,,,,,,,,,,,,,,,,a,001,2020_Jun_02_1611,vSearchAlpha4,2020.1.3,60.43555908413729,
0.4,0.2,0.4,0.0,0.2,0.2,0.0,0.2,-0.4,-0.2,0.4,-0.2,None,None,m,,,,,,,,,,,,,,,,,,,,,,,,,0,5,5,5,,,,,,,,,,,,,,,,,,,,,,,54.75896140001714,55.76070569991134,55.74182299990207,None,55.74182299990207,None,55.74182299990207,None,55.74182299990207,None,55.74182299990207,None,55.74182299990207,None,55.74182299990207,None,None,0,55.74182299990207,None,,,,,,,,,,,,,,,,,,,,,,,,,,,,,,,,,,,,,,,,,,,,,,,,,,,,,,,,,,,,,,,,,,,,,,,,,,,,,,,,,,,,,,,,,,,a,001,2020_Jun_02_1611,vSearchAlpha4,2020.1.3,60.43555908413729,
None,None,-0.2,0.2,0.0,0.2,0.4,0.2,0.2,0.2,0.0,0.0,-0.2,0.0,b,,,,,,,,,,,,,,,,,,,,,,,,,0,6,6,6,,,,,,,,,,,,,,,,,,,,,,,58.74343589995988,59.759707799879834,59.740804200060666,None,59.740804200060666,None,59.740804200060666,None,59.740804200060666,None,59.740804200060666,None,59.740804200060666,None,59.740804200060666,None,None,0,59.740804200060666,None,,,,,,,,,,,,,,,,,,,,,,,,,,,,,,,,,,,,,,,,,,,,,,,,,,,,,,,,,,,,,,,,,,,,,,,,,,,,,,,,,,,,,,,,,,,a,001,2020_Jun_02_1611,vSearchAlpha4,2020.1.3,60.43555908413729,
-0.4,-0.2,0.2,0.2,0.0,0.0,0.4,-0.2,None,None,-0.2,0.2,0.4,0.2,b,,,,,,,,,,,,,,,,,,,,,,,,,0,7,7,7,,,,,,,,,,,,,,,,,,,,,,,62.743505799910054,63.75937670003623,63.74010609998368,None,63.74010609998368,None,63.74010609998368,None,63.74010609998368,None,63.74010609998368,None,63.74010609998368,None,63.74010609998368,None,None,0,63.74010609998368,None,,,,,,,,,,,,,,,,,,,,,,,,,,,,,,,,,,,,,,,,,,,,,,,,,,,,,,,,,,,,,,,,,,,,,,,,,,,,,,,,,,,,,,,,,,,a,001,2020_Jun_02_1611,vSearchAlpha4,2020.1.3,60.43555908413729,
0.2,0.2,-0.4,0.4,0.0,-0.2,None,None,0.0,0.4,0.4,-0.2,-0.4,0.0,b,,,,,,,,,,,,,,,,,,,,,,,,,0,8,8,8,,,,,,,,,,,,,,,,,,,,,,,66.7411261999514,67.73880299995653,67.73880299995653,None,67.73880299995653,None,67.73880299995653,None,67.73880299995653,None,67.73880299995653,None,67.73880299995653,None,67.73880299995653,None,None,0,67.73880299995653,None,,,,,,,,,,,,,,,,,,,,,,,,,,,,,,,,,,,,,,,,,,,,,,,,,,,,,,,,,,,,,,,,,,,,,,,,,,,,,,,,,,,,,,,,,,,a,001,2020_Jun_02_1611,vSearchAlpha4,2020.1.3,60.43555908413729,
0.0,0.0,0.0,-0.2,0.2,0.2,-0.4,-0.2,0.4,0.2,0.0,0.2,None,None,m,,,,,,,,,,,,,,,,,,,,,,,,,0,9,9,9,,,,,,,,,,,,,,,,,,,,,,,70.74097989988513,71.73910079989582,71.73910079989582,None,71.73910079989582,None,71.73910079989582,None,71.73910079989582,None,71.73910079989582,None,71.73910079989582,None,71.73910079989582,None,None,0,71.73910079989582,None,,,,,,,,,,,,,,,,,,,,,,,,,,,,,,,,,,,,,,,,,,,,,,,,,,,,,,,,,,,,,,,,,,,,,,,,,,,,,,,,,,,,,,,,,,,a,001,2020_Jun_02_1611,vSearchAlpha4,2020.1.3,60.43555908413729,
0.4,0.2,-0.4,-0.2,0.4,0.0,0.0,-0.4,0.0,0.4,-0.2,0.2,None,None,m,,,,,,,,,,,,,,,,,,,,,,,,,0,10,10,10,,,,,,,,,,,,,,,,,,,,,,,74.74191850004718,75.75931459991261,75.73882930004038,None,75.73882930004038,None,75.73882930004038,None,75.73882930004038,None,75.73882930004038,None,75.73882930004038,None,75.73882930004038,None,None,0,75.73882930004038,None,,,,,,,,,,,,,,,,,,,,,,,,,,,,,,,,,,,,,,,,,,,,,,,,,,,,,,,,,,,,,,,,,,,,,,,,,,,,,,,,,,,,,,,,,,,a,001,2020_Jun_02_1611,vSearchAlpha4,2020.1.3,60.43555908413729,
0.0,0.0,None,None,0.4,-0.2,-0.2,0.2,0.2,0.2,0.4,0.0,-0.4,-0.2,b,,,,,,,,,,,,,,,,,,,,,,,,,0,11,11,11,,,,,,,,,,,,,,,,,,,,,,,78.73885550000705,79.7381170000881,79.72163669997826,None,79.72163669997826,None,79.72163669997826,None,79.72163669997826,None,79.72163669997826,None,79.72163669997826,None,79.72163669997826,None,None,0,79.72163669997826,None,,,,,,,,,,,,,,,,,,,,,,,,,,,,,,,,,,,,,,,,,,,,,,,,,,,,,,,,,,,,,,,,,,,,,,,,,,,,,,,,,,,,,,,,,,,a,001,2020_Jun_02_1611,vSearchAlpha4,2020.1.3,60.43555908413729,
0.2,0.2,0.0,0.0,0.0,0.2,None,None,-0.4,-0.2,0.4,-0.2,-0.4,0.0,b,,,,,,,,,,,,,,,,,,,,,,,,,0,12,12,12,,,,,,,,,,,,,,,,,,,,,,,82.73805369995534,83.76897399988957,83.7206162000075,None,83.7206162000075,None,83.7206162000075,None,83.7206162000075,None,83.7206162000075,None,83.7206162000075,None,83.7206162000075,None,None,0,83.7206162000075,None,,,,,,,,,,,,,,,,,,,,,,,,,,,,,,,,,,,,,,,,,,,,,,,,,,,,,,,,,,,,,,,,,,,,,,,,,,,,,,,,,,,,,,,,,,,a,001,2020_Jun_02_1611,vSearchAlpha4,2020.1.3,60.43555908413729,
-0.4,-0.2,0.0,0.2,-0.2,0.2,0.0,0.0,0.0,-0.2,0.4,-0.2,None,None,m,,,,,,,,,,,,,,,,,,,,,,,,,0,13,13,13,,,,,,,,,,,,,,,,,,,,,,,86.7385511000175,87.75508849998005,87.73574299993925,None,87.73574299993925,None,87.73574299993925,None,87.73574299993925,None,87.73574299993925,None,87.73574299993925,None,87.73574299993925,None,None,0,87.73574299993925,None,,,,,,,,,,,,,,,,,,,,,,,,,,,,,,,,,,,,,,,,,,,,,,,,,,,,,,,,,,,,,,,,,,,,,,,,,,,,,,,,,,,,,,,,,,,a,001,2020_Jun_02_1611,vSearchAlpha4,2020.1.3,60.43555908413729,
0.0,0.2,0.4,0.4,0.4,-0.2,0.2,-0.2,-0.4,-0.4,None,None,0.2,0.2,b,,,,,,,,,,,,,,,,,,,,,,,,,0,14,14,14,,,,,,,,,,,,,,,,,,,,,,,90.75549710006453,91.76860209996812,91.75229380000383,None,91.75229380000383,None,91.75229380000383,None,91.75229380000383,None,91.75229380000383,None,91.75229380000383,None,91.75229380000383,None,None,0,91.75229380000383,None,,,,,,,,,,,,,,,,,,,,,,,,,,,,,,,,,,,,,,,,,,,,,,,,,,,,,,,,,,,,,,,,,,,,,,,,,,,,,,,,,,,,,,,,,,,a,001,2020_Jun_02_1611,vSearchAlpha4,2020.1.3,60.43555908413729,
-0.4,-0.2,0.4,-0.2,0.4,0.2,0.4,0.0,0.2,0.2,0.0,0.2,None,None,m,,,,,,,,,,,,,,,,,,,,,,,,,0,15,15,15,,,,,,,,,,,,,,,,,,,,,,,94.75410580006428,95.76763739995658,95.73412939999253,None,95.73412939999253,None,95.73412939999253,None,95.73412939999253,None,95.73412939999253,None,95.73412939999253,None,95.73412939999253,None,None,0,95.73412939999253,None,,,,,,,,,,,,,,,,,,,,,,,,,,,,,,,,,,,,,,,,,,,,,,,,,,,,,,,,,,,,,,,,,,,,,,,,,,,,,,,,,,,,,,,,,,,a,001,2020_Jun_02_1611,vSearchAlpha4,2020.1.3,60.43555908413729,
0.2,0.2,0.0,0.0,None,None,-0.2,0.2,0.0,0.2,0.4,0.2,-0.2,0.0,b,,,,,,,,,,,,,,,,,,,,,,,,,0,16,16,16,,,,,,,,,,,,,,,,,,,,,,,98.75321700004861,99.76639880007133,99.74822840001434,None,99.74822840001434,None,99.74822840001434,None,99.74822840001434,None,99.74822840001434,None,99.74822840001434,None,99.74822840001434,None,None,0,99.74822840001434,None,,,,,,,,,,,,,,,,,,,,,,,,,,,,,,,,,,,,,,,,,,,,,,,,,,,,,,,,,,,,,,,,,,,,,,,,,,,,,,,,,,,,,,,,,,,a,001,2020_Jun_02_1611,vSearchAlpha4,2020.1.3,60.43555908413729,
None,None,-0.2,0.2,-0.4,-0.2,0.2,0.2,0.2,0.4,0.4,-0.2,0.4,0.0,b,,,,,,,,,,,,,,,,,,,,,,,,,0,17,17,17,,,,,,,,,,,,,,,,,,,,,,,102.74965170002542,103.76675849989988,103.73199629993178,None,103.73199629993178,None,103.73199629993178,None,103.73199629993178,None,103.73199629993178,None,103.73199629993178,None,103.73199629993178,None,None,0,103.73199629993178,None,,,,,,,,,,,,,,,,,,,,,,,,,,,,,,,,,,,,,,,,,,,,,,,,,,,,,,,,,,,,,,,,,,,,,,,,,,,,,,,,,,,,,,,,,,,a,001,2020_Jun_02_1611,vSearchAlpha4,2020.1.3,60.43555908413729,
0.0,0.2,0.4,-0.2,0.2,0.2,0.0,0.0,0.0,-0.2,None,None,-0.2,0.0,b,,,,,,,,,,,,,,,,,,,,,,,,,0,18,18,18,,,,,,,,,,,,,,,,,,,,,,,106.74786229990423,107.7645825999789,107.74592479993589,None,107.74592479993589,None,107.74592479993589,None,107.74592479993589,None,107.74592479993589,None,107.74592479993589,None,107.74592479993589,None,None,0,107.74592479993589,None,,,,,,,,,,,,,,,,,,,,,,,,,,,,,,,,,,,,,,,,,,,,,,,,,,,,,,,,,,,,,,,,,,,,,,,,,,,,,,,,,,,,,,,,,,,a,001,2020_Jun_02_1611,vSearchAlpha4,2020.1.3,60.43555908413729,
0.4,0.2,0.0,0.2,0.0,0.0,0.0,-0.2,0.2,0.2,-0.4,-0.2,None,None,m,,,,,,,,,,,,,,,,,,,,,,,,,0,19,19,19,,,,,,,,,,,,,,,,,,,,,,,110.74682100000791,111.76368470001034,111.74466650001705,None,111.74466650001705,None,111.74466650001705,None,111.74466650001705,None,111.74466650001705,None,111.74466650001705,None,111.74466650001705,None,None,0,111.74466650001705,None,,,,,,,,,,,,,,,,,,,,,,,,,,,,,,,,,,,,,,,,,,,,,,,,,,,,,,,,,,,,,,,,,,,,,,,,,,,,,,,,,,,,,,,,,,,a,001,2020_Jun_02_1611,vSearchAlpha4,2020.1.3,60.43555908413729,
-0.4,0.0,None,None,-0.2,0.0,-0.4,0.2,-0.2,0.4,0.4,0.4,0.0,0.0,b,,,,,,,,,,,,,,,,,,,,,,,,,0,20,20,20,,,,,,,,,,,,,,,,,,,,,,,114.74746800004505,115.76196080003865,115.743442799896,None,115.743442799896,None,115.743442799896,None,115.743442799896,None,115.743442799896,None,115.743442799896,None,115.743442799896,None,None,0,115.743442799896,None,,,,,,,,,,,,,,,,,,,,,,,,,,,,,,,,,,,,,,,,,,,,,,,,,,,,,,,,,,,,,,,,,,,,,,,,,,,,,,,,,,,,,,,,,,,a,001,2020_Jun_02_1611,vSearchAlpha4,2020.1.3,60.43555908413729,
0.2,-0.2,0.0,0.0,0.0,-0.2,-0.4,0.2,-0.4,0.4,0.4,-0.4,None,None,m,,,,,,,,,,,,,,,,,,,,,,,,,0,21,21,21,,,,,,,,,,,,,,,,,,,,,,,118.74801689991727,119.76094199996442,119.74255280010402,None,119.74255280010402,None,119.74255280010402,None,119.74255280010402,None,119.74255280010402,None,119.74255280010402,None,119.74255280010402,None,None,0,119.74255280010402,None,,,,,,,,,,,,,,,,,,,,,,,,,,,,,,,,,,,,,,,,,,,,,,,,,,,,,,,,,,,,,,,,,,,,,,,,,,,,,,,,,,,,,,,,,,,a,001,2020_Jun_02_1611,vSearchAlpha4,2020.1.3,60.43555908413729,
0.0,-0.4,0.2,0.2,-0.2,-0.4,0.4,0.0,None,None,0.2,0.4,0.0,-0.2,b,,,,,,,,,,,,,,,,,,,,,,,,,0,22,22,22,,,,,,,,,,,,,,,,,,,,,,,122.74431909993291,123.7606726998929,123.741464599967,None,123.741464599967,None,123.741464599967,None,123.741464599967,None,123.741464599967,None,123.741464599967,None,123.741464599967,None,None,0,123.741464599967,None,,,,,,,,,,,,,,,,,,,,,,,,,,,,,,,,,,,,,,,,,,,,,,,,,,,,,,,,,,,,,,,,,,,,,,,,,,,,,,,,,,,,,,,,,,,a,001,2020_Jun_02_1611,vSearchAlpha4,2020.1.3,60.43555908413729,
0.2,0.0,-0.4,-0.2,0.2,-0.4,0.2,-0.2,-0.4,0.4,0.2,0.4,None,None,m,,,,,,,,,,,,,,,,,,,,,,,,,0,23,23,23,,,,,,,,,,,,,,,,,,,,,,,126.74256810010411,127.76021210011095,127.74057630007155,None,127.74057630007155,None,127.74057630007155,None,127.74057630007155,None,127.74057630007155,None,127.74057630007155,None,127.74057630007155,None,None,0,127.74057630007155,None,,,,,,,,,,,,,,,,,,,,,,,,,,,,,,,,,,,,,,,,,,,,,,,,,,,,,,,,,,,,,,,,,,,,,,,,,,,,,,,,,,,,,,,,,,,a,001,2020_Jun_02_1611,vSearchAlpha4,2020.1.3,60.43555908413729,
-0.2,-0.4,0.0,0.2,0.2,0.4,None,None,0.0,0.4,0.4,0.4,0.4,0.2,b,,,,,,,,,,,,,,,,,,,,,,,,,0,24,24,24,,,,,,,,,,,,,,,,,,,,,,,130.74265230004676,131.7592527999077,131.7398546000477,None,131.7398546000477,None,131.7398546000477,None,131.7398546000477,None,131.7398546000477,None,131.7398546000477,None,131.7398546000477,None,None,0,131.7398546000477,None,,,,,,,,,,,,,,,,,,,,,,,,,,,,,,,,,,,,,,,,,,,,,,,,,,,,,,,,,,,,,,,,,,,,,,,,,,,,,,,,,,,,,,,,,,,a,001,2020_Jun_02_1611,vSearchAlpha4,2020.1.3,60.43555908413729,
0.2,0.4,-0.4,0.2,0.4,0.4,-0.4,0.0,0.0,0.4,None,None,-0.2,-0.4,b,,,,,,,,,,,,,,,,,,,,,,,,,0,25,25,25,,,,,,,,,,,,,,,,,,,,,,,134.7422853000462,135.7592901000753,135.7389136001002,None,135.7389136001002,None,135.7389136001002,None,135.7389136001002,None,135.7389136001002,None,135.7389136001002,None,135.7389136001002,None,None,0,135.7389136001002,None,,,,,,,,,,,,,,,,,,,,,,,,,,,,,,,,,,,,,,,,,,,,,,,,,,,,,,,,,,,,,,,,,,,,,,,,,,,,,,,,,,,,,,,,,,,a,001,2020_Jun_02_1611,vSearchAlpha4,2020.1.3,60.43555908413729,
-0.2,-0.4,0.2,0.2,0.2,0.0,-0.2,0.0,-0.4,0.4,0.4,-0.4,None,None,m,,,,,,,,,,,,,,,,,,,,,,,,,0,26,26,26,,,,,,,,,,,,,,,,,,,,,,,138.74093590001576,139.73877909989096,139.73877909989096,None,139.73877909989096,None,139.73877909989096,None,139.73877909989096,None,139.73877909989096,None,139.73877909989096,None,139.73877909989096,None,None,0,139.73877909989096,None,,,,,,,,,,,,,,,,,,,,,,,,,,,,,,,,,,,,,,,,,,,,,,,,,,,,,,,,,,,,,,,,,,,,,,,,,,,,,,,,,,,,,,,,,,,a,001,2020_Jun_02_1611,vSearchAlpha4,2020.1.3,60.43555908413729,
0.2,-0.4,0.0,0.2,None,None,-0.2,0.2,-0.2,0.4,0.4,-0.4,-0.2,-0.2,b,,,,,,,,,,,,,,,,,,,,,,,,,0,27,27,27,,,,,,,,,,,,,,,,,,,,,,,142.74147229990922,143.73863469995558,143.73863469995558,None,143.73863469995558,None,143.73863469995558,None,143.73863469995558,None,143.73863469995558,None,143.73863469995558,None,143.73863469995558,None,None,0,143.73863469995558,None,,,,,,,,,,,,,,,,,,,,,,,,,,,,,,,,,,,,,,,,,,,,,,,,,,,,,,,,,,,,,,,,,,,,,,,,,,,,,,,,,,,,,,,,,,,a,001,2020_Jun_02_1611,vSearchAlpha4,2020.1.3,60.43555908413729,
0.2,-0.2,0.4,-0.2,0.4,0.4,0.0,-0.2,-0.4,0.4,None,None,0.4,0.2,b,,,,,,,,,,,,,,,,,,,,,,,,,0,28,28,28,,,,,,,,,,,,,,,,,,,,,,,146.75270069995895,147.75408539990894,147.7241817000322,None,147.7241817000322,None,147.7241817000322,None,147.7241817000322,None,147.7241817000322,None,147.7241817000322,None,147.7241817000322,None,None,0,147.7241817000322,None,,,,,,,,,,,,,,,,,,,,,,,,,,,,,,,,,,,,,,,,,,,,,,,,,,,,,,,,,,,,,,,,,,,,,,,,,,,,,,,,,,,,,,,,,,,a,001,2020_Jun_02_1611,vSearchAlpha4,2020.1.3,60.43555908413729,
0.2,-0.4,0.2,0.2,0.0,-0.4,0.4,0.0,-0.4,0.4,0.2,0.4,None,None,m,,,,,,,,,,,,,,,,,,,,,,,,,0,29,29,29,,,,,,,,,,,,,,,,,,,,,,,150.74028220004402,151.7550057999324,151.73648459999822,None,151.73648459999822,None,151.73648459999822,None,151.73648459999822,None,151.73648459999822,None,151.73648459999822,None,151.73648459999822,None,None,0,151.73648459999822,None,,,,,,,,,,,,,,,,,,,,,,,,,,,,,,,,,,,,,,,,,,,,,,,,,,,,,,,,,,,,,,,,,,,,,,,,,,,,,,,,,,,,,,,,,,,a,001,2020_Jun_02_1611,vSearchAlpha4,2020.1.3,60.43555908413729,
0.2,-0.2,-0.4,-0.2,0.2,0.0,-0.2,-0.2,None,None,0.4,0.4,0.0,0.4,b,,,,,,,,,,,,,,,,,,,,,,,,,0,30,30,30,,,,,,,,,,,,,,,,,,,,,,,154.73783429991454,155.75350190000609,155.73553659999743,None,155.73553659999743,None,155.73553659999743,None,155.73553659999743,None,155.73553659999743,None,155.73553659999743,None,155.73553659999743,None,None,0,155.73553659999743,None,,,,,,,,,,,,,,,,,,,,,,,,,,,,,,,,,,,,,,,,,,,,,,,,,,,,,,,,,,,,,,,,,,,,,,,,,,,,,,,,,,,,,,,,,,,a,001,2020_Jun_02_1611,vSearchAlpha4,2020.1.3,60.43555908413729,
0.2,-0.4,-0.2,0.4,0.0,0.2,-0.2,-0.4,0.2,0.0,0.4,0.4,None,None,m,,,,,,,,,,,,,,,,,,,,,,,,,0,31,31,31,,,,,,,,,,,,,,,,,,,,,,,158.75829280004837,159.76865500002168,159.75078939995728,None,159.75078939995728,None,159.75078939995728,None,159.75078939995728,None,159.75078939995728,None,159.75078939995728,None,159.75078939995728,None,None,0,159.75078939995728,None,,,,,,,,,,,,,,,,,,,,,,,,,,,,,,,,,,,,,,,,,,,,,,,,,,,,,,,,,,,,,,,,,,,,,,,,,,,,,,,,,,,,,,,,,,,a,001,2020_Jun_02_1611,vSearchAlpha4,2020.1.3,60.43555908413729,
0.0,-0.4,0.0,-0.2,-0.2,0.0,0.4,0.2,-0.2,0.4,0.2,0.4,None,None,m,,,,,,,,,,,,,,,,,,,,,,,,,0,32,32,32,,,,,,,,,,,,,,,,,,,,,,,162.7512922999449,163.78230369999073,163.73377169994637,None,163.73377169994637,None,163.73377169994637,None,163.73377169994637,None,163.73377169994637,None,163.73377169994637,None,163.73377169994637,None,None,0,163.73377169994637,None,,,,,,,,,,,,,,,,,,,,,,,,,,,,,,,,,,,,,,,,,,,,,,,,,,,,,,,,,,,,,,,,,,,,,,,,,,,,,,,,,,,,,,,,,,,a,001,2020_Jun_02_1611,vSearchAlpha4,2020.1.3,60.43555908413729,
-0.2,-0.2,0.4,0.2,None,None,-0.2,-0.4,0.0,0.4,0.0,0.0,0.4,0.4,b,,,,,,,,,,,,,,,,,,,,,,,,,0,33,33,33,,,,,,,,,,,,,,,,,,,,,,,166.74981339997612,167.76377910003066,167.72977240011096,None,167.72977240011096,None,167.72977240011096,None,167.72977240011096,None,167.72977240011096,None,167.72977240011096,None,167.72977240011096,None,None,0,167.72977240011096,None,,,,,,,,,,,,,,,,,,,,,,,,,,,,,,,,,,,,,,,,,,,,,,,,,,,,,,,,,,,,,,,,,,,,,,,,,,,,,,,,,,,,,,,,,,,a,001,2020_Jun_02_1611,vSearchAlpha4,2020.1.3,60.43555908413729,
-0.2,-0.2,0.0,0.2,0.0,-0.2,0.2,0.0,-0.4,0.4,0.2,0.4,None,None,m,,,,,,,,,,,,,,,,,,,,,,,,,0,34,34,34,,,,,,,,,,,,,,,,,,,,,,,170.73278789990582,171.74684170004912,171.73016420006752,170.73278789990582,171.73016420006752,170.73278789990582,171.73016420006752,170.73278789990582,171.73016420006752,170.73278789990582,171.73016420006752,170.73278789990582,171.73016420006752,170.73278789990582,171.73016420006752,170.73278789990582,None,0,171.73016420006752,170.73278789990582,,,,,,,,,,,,,,,,,,,,,,,,,,,,,,,,,,,,,,,,,,,,,,,,,,,,,,,,,,,,,,,,,,,,,,,,,,,,,,,,,,,,,,,,,,,a,001,2020_Jun_02_1611,vSearchAlpha4,2020.1.3,60.43555908413729,
0.2,-0.4,0.4,-0.2,0.2,0.0,0.0,-0.2,None,None,0.4,-0.4,-0.2,0.4,b,,,,,,,,,,,,,,,,,,,,,,,,,0,35,35,35,,,,,,,,,,,,,,,,,,,,,,,174.7471195999533,175.74748110002838,175.73070880002342,None,175.73070880002342,None,175.73070880002342,None,175.73070880002342,None,175.73070880002342,None,175.73070880002342,None,175.73070880002342,None,None,0,175.73070880002342,None,,,,,,,,,,,,,,,,,,,,,,,,,,,,,,,,,,,,,,,,,,,,,,,,,,,,,,,,,,,,,,,,,,,,,,,,,,,,,,,,,,,,,,,,,,,a,001,2020_Jun_02_1611,vSearchAlpha4,2020.1.3,60.43555908413729,
-0.2,-0.2,None,None,0.0,0.0,0.0,-0.4,-0.4,0.4,0.2,0.4,-0.4,0.0,b,,,,,,,,,,,,,,,,,,,,,,,,,0,36,36,36,,,,,,,,,,,,,,,,,,,,,,,178.74118510005064,179.74552779993974,179.7294292000588,178.74118510005064,179.7294292000588,178.74118510005064,179.7294292000588,178.74118510005064,179.7294292000588,178.74118510005064,179.7294292000588,178.74118510005064,179.7294292000588,178.74118510005064,179.7294292000588,178.74118510005064,None,0,179.7294292000588,178.74118510005064,,,,,,,,,,,,,,,,,,,,,,,,,,,,,,,,,,,,,,,,,,,,,,,,,,,,,,,,,,,,,,,,,,,,,,,,,,,,,,,,,,,,,,,,,,,a,001,2020_Jun_02_1611,vSearchAlpha4,2020.1.3,60.43555908413729,
None,None,0.2,0.2,0.2,-0.4,-0.2,0.0,0.0,0.4,0.4,-0.4,0.4,0.0,b,,,,,,,,,,,,,,,,,,,,,,,,,0,37,37,37,,,,,,,,,,,,,,,,,,,,,,,182.74551829998381,183.7428003998939,183.7428003998939,None,183.7428003998939,None,183.7428003998939,None,183.7428003998939,None,183.7428003998939,None,183.7428003998939,None,183.7428003998939,None,None,0,183.7428003998939,None,,,,,,,,,,,,,,,,,,,,,,,,,,,,,,,,,,,,,,,,,,,,,,,,,,,,,,,,,,,,,,,,,,,,,,,,,,,,,,,,,,,,,,,,,,,a,001,2020_Jun_02_1611,vSearchAlpha4,2020.1.3,60.43555908413729,
0.0,-0.2,-0.2,0.2,0.0,0.4,-0.4,0.2,0.4,0.2,0.4,0.4,None,None,m,,,,,,,,,,,,,,,,,,,,,,,,,0,38,38,38,,,,,,,,,,,,,,,,,,,,,,,186.74417559988797,187.74188650003634,187.74188650003634,None,187.74188650003634,None,187.74188650003634,None,187.74188650003634,None,187.74188650003634,None,187.74188650003634,None,187.74188650003634,None,None,0,187.74188650003634,None,,,,,,,,,,,,,,,,,,,,,,,,,,,,,,,,,,,,,,,,,,,,,,,,,,,,,,,,,,,,,,,,,,,,,,,,,,,,,,,,,,,,,,,,,,,a,001,2020_Jun_02_1611,vSearchAlpha4,2020.1.3,60.43555908413729,
-0.2,-0.4,-0.4,0.4,0.0,0.0,0.2,-0.4,-0.4,0.0,0.2,0.4,None,None,m,,,,,,,,,,,,,,,,,,,,,,,,,0,39,39,39,,,,,,,,,,,,,,,,,,,,,,,190.74339179997332,191.74075399991125,191.74075399991125,None,191.74075399991125,None,191.74075399991125,None,191.74075399991125,None,191.74075399991125,None,191.74075399991125,None,191.74075399991125,None,None,0,191.74075399991125,None,,,,,,,,,,,,,,,,,,,,,,,,,,,,,,,,,,,,,,,,,,,,,,,,,,,,,,,,,,,,,,,,,,,,,,,,,,,,,,,,,,,,,,,,,,,a,001,2020_Jun_02_1611,vSearchAlpha4,2020.1.3,60.43555908413729,
,,,,,,,,,,,,,,,,,,,,,,,,,,,,,,,,,,,,,,,,,,,,,,,,,,,,,,,,,,,,,,,,,,,,,,,,,,,,,,,,,,,,,194.74045599997044,None,space,11.649108700221404,194.74045599997044,None,,,,,,,,,,,,,,,,,,,,,,,,,,,,,,,,,,,,,,,,,,,,,,,,,,,,,,,,,,,,,,,,,,,,,,,,,,,,,,,,,,,,,a,001,2020_Jun_02_1611,vSearchAlpha4,2020.1.3,60.43555908413729,
0.2,0.2,-0.4,-0.2,0.4,-0.2,0.0,0.0,-0.2,0.2,None,None,-0.4,-0.4,b,0.4,-0.4,0.2,0.4,0.0,-0.4,-0.2,0.4,0.4,0.4,-0.4,0.2,,,,,,,,,,,,,,,,,0,0,0,0,,,,,,,,,,,,,,,,,,,,,,,,,,,,,,,,,,,,,,,,,,,,,206.47078419988975,207.4800551000517,207.4639624999836,None,207.4639624999836,None,207.4639624999836,None,207.4639624999836,None,207.4639624999836,None,207.4639624999836,None,207.4639624999836,None,207.4639624999836,None,207.4639624999836,None,207.4639624999836,None,207.4639624999836,None,207.4639624999836,None,207.4639624999836,None,None,0,207.4639624999836,None,,,,,,,,,,,,,,,,,,,,,,,,,,,,,,,,,,,,,,,,,,,,,,,,,,,,,a,001,2020_Jun_02_1611,vSearchAlpha4,2020.1.3,60.43555908413729,
0.0,0.2,0.4,0.0,-0.2,0.2,0.0,0.0,-0.4,-0.2,0.4,0.2,-0.2,-0.4,m,0.0,-0.4,0.2,0.4,0.2,-0.4,-0.4,0.4,0.4,-0.4,None,None,,,,,,,,,,,,,,,,,0,1,1,1,,,,,,,,,,,,,,,,,,,,,,,,,,,,,,,,,,,,,,,,,,,,,210.44692160002887,211.4596959000919,211.43921760004014,None,211.43921760004014,None,211.43921760004014,None,211.43921760004014,None,211.43921760004014,None,211.43921760004014,None,211.43921760004014,None,211.43921760004014,None,211.43921760004014,None,211.43921760004014,None,211.43921760004014,None,211.43921760004014,None,211.43921760004014,None,None,0,211.43921760004014,None,,,,,,,,,,,,,,,,,,,,,,,,,,,,,,,,,,,,,,,,,,,,,,,,,,,,,a,001,2020_Jun_02_1611,vSearchAlpha4,2020.1.3,60.43555908413729,
-0.2,0.2,0.4,-0.2,0.4,0.0,0.2,0.2,None,None,0.0,0.0,-0.4,-0.4,b,0.4,-0.4,0.0,0.4,-0.2,-0.4,-0.2,0.4,0.2,0.4,0.0,-0.2,,,,,,,,,,,,,,,,,0,2,2,2,,,,,,,,,,,,,,,,,,,,,,,,,,,,,,,,,,,,,,,,,,,,,214.42848120001145,215.4374585999176,215.4374585999176,None,215.4374585999176,None,215.4374585999176,None,215.4374585999176,None,215.4374585999176,None,215.4374585999176,None,215.4374585999176,None,215.4374585999176,None,215.4374585999176,None,215.4374585999176,None,215.4374585999176,None,215.4374585999176,None,215.4374585999176,None,None,0,215.4374585999176,None,,,,,,,,,,,,,,,,,,,,,,,,,,,,,,,,,,,,,,,,,,,,,,,,,,,,,a,001,2020_Jun_02_1611,vSearchAlpha4,2020.1.3,60.43555908413729,
None,None,0.0,0.2,0.4,-0.2,-0.4,-0.2,0.0,0.0,0.2,0.2,-0.2,-0.4,b,0.4,-0.4,0.0,0.4,0.2,-0.4,-0.4,0.4,0.2,0.4,0.2,-0.2,,,,,,,,,,,,,,,,,0,3,3,3,,,,,,,,,,,,,,,,,,,,,,,,,,,,,,,,,,,,,,,,,,,,,218.42853699997067,219.4388927000109,219.42107959999703,None,219.42107959999703,None,219.42107959999703,None,219.42107959999703,None,219.42107959999703,None,219.42107959999703,None,219.42107959999703,None,219.42107959999703,None,219.42107959999703,None,219.42107959999703,None,219.42107959999703,None,219.42107959999703,None,219.42107959999703,None,None,0,219.42107959999703,None,,,,,,,,,,,,,,,,,,,,,,,,,,,,,,,,,,,,,,,,,,,,,,,,,,,,,a,001,2020_Jun_02_1611,vSearchAlpha4,2020.1.3,60.43555908413729,
0.0,0.0,-0.2,0.2,0.4,-0.2,0.0,0.2,0.0,-0.2,-0.4,-0.2,-0.4,-0.4,m,0.4,-0.4,0.2,0.4,-0.2,-0.4,0.0,0.4,0.4,0.4,None,None,,,,,,,,,,,,,,,,,0,4,4,4,,,,,,,,,,,,,,,,,,,,,,,,,,,,,,,,,,,,,,,,,,,,,222.4280600999482,223.43833200004883,223.4199298999738,None,223.4199298999738,None,223.4199298999738,None,223.4199298999738,None,223.4199298999738,None,223.4199298999738,None,223.4199298999738,None,223.4199298999738,None,223.4199298999738,None,223.4199298999738,None,223.4199298999738,None,223.4199298999738,None,223.4199298999738,None,None,0,223.4199298999738,None,,,,,,,,,,,,,,,,,,,,,,,,,,,,,,,,,,,,,,,,,,,,,,,,,,,,,a,001,2020_Jun_02_1611,vSearchAlpha4,2020.1.3,60.43555908413729,
0.2,-0.2,0.4,-0.2,None,None,-0.4,0.0,0.4,0.2,0.0,0.2,0.4,0.0,b,0.4,-0.4,0.2,0.4,0.2,-0.4,0.0,0.4,0.4,0.4,-0.2,-0.4,,,,,,,,,,,,,,,,,0,5,5,5,,,,,,,,,,,,,,,,,,,,,,,,,,,,,,,,,,,,,,,,,,,,,226.42455919994973,227.43757000006735,227.41997859999537,None,227.41997859999537,None,227.41997859999537,None,227.41997859999537,None,227.41997859999537,None,227.41997859999537,None,227.41997859999537,None,227.41997859999537,None,227.41997859999537,None,227.41997859999537,None,227.41997859999537,None,227.41997859999537,None,227.41997859999537,None,None,0,227.41997859999537,None,,,,,,,,,,,,,,,,,,,,,,,,,,,,,,,,,,,,,,,,,,,,,,,,,,,,,a,001,2020_Jun_02_1611,vSearchAlpha4,2020.1.3,60.43555908413729,
0.4,0.0,0.4,0.2,0.0,0.2,0.2,0.2,0.4,-0.2,-0.4,-0.2,-0.4,-0.4,m,0.0,-0.4,0.2,0.4,-0.2,-0.4,-0.4,0.4,0.4,-0.4,None,None,,,,,,,,,,,,,,,,,0,6,6,6,,,,,,,,,,,,,,,,,,,,,,,,,,,,,,,,,,,,,,,,,,,,,230.42724040010944,231.4352400000207,231.41717920009978,None,231.41717920009978,None,231.41717920009978,None,231.41717920009978,None,231.41717920009978,None,231.41717920009978,None,231.41717920009978,None,231.41717920009978,None,231.41717920009978,None,231.41717920009978,None,231.41717920009978,None,231.41717920009978,None,231.41717920009978,None,None,0,231.41717920009978,None,,,,,,,,,,,,,,,,,,,,,,,,,,,,,,,,,,,,,,,,,,,,,,,,,,,,,a,001,2020_Jun_02_1611,vSearchAlpha4,2020.1.3,60.43555908413729,
-0.2,0.2,None,None,0.4,0.2,0.0,0.2,0.0,0.0,0.2,0.2,-0.4,-0.4,b,0.0,-0.4,0.2,0.4,-0.2,-0.4,-0.2,0.4,0.4,-0.4,-0.2,-0.2,,,,,,,,,,,,,,,,,0,7,7,7,,,,,,,,,,,,,,,,,,,,,,,,,,,,,,,,,,,,,,,,,,,,,234.42405429994687,235.43334789993241,235.41497260006145,None,235.41497260006145,None,235.41497260006145,None,235.41497260006145,None,235.41497260006145,None,235.41497260006145,None,235.41497260006145,None,235.41497260006145,None,235.41497260006145,None,235.41497260006145,None,235.41497260006145,None,235.41497260006145,None,235.41497260006145,None,None,0,235.41497260006145,None,,,,,,,,,,,,,,,,,,,,,,,,,,,,,,,,,,,,,,,,,,,,,,,,,,,,,a,001,2020_Jun_02_1611,vSearchAlpha4,2020.1.3,60.43555908413729,
0.0,0.0,0.2,0.2,None,None,0.0,-0.2,0.4,-0.2,0.0,0.2,-0.2,-0.4,b,0.0,-0.4,0.2,0.4,0.2,-0.4,-0.4,0.4,0.4,0.4,0.4,0.2,,,,,,,,,,,,,,,,,0,8,8,8,,,,,,,,,,,,,,,,,,,,,,,,,,,,,,,,,,,,,,,,,,,,,238.42300239996985,239.43220510007814,239.41448589996435,None,239.41448589996435,None,239.41448589996435,None,239.41448589996435,None,239.41448589996435,None,239.41448589996435,None,239.41448589996435,None,239.41448589996435,None,239.41448589996435,None,239.41448589996435,None,239.41448589996435,None,239.41448589996435,None,239.41448589996435,None,None,0,239.41448589996435,None,,,,,,,,,,,,,,,,,,,,,,,,,,,,,,,,,,,,,,,,,,,,,,,,,,,,,a,001,2020_Jun_02_1611,vSearchAlpha4,2020.1.3,60.43555908413729,
0.0,-0.2,0.0,0.0,-0.4,-0.2,0.2,0.2,0.0,0.2,0.4,0.2,-0.4,-0.4,m,0.4,-0.4,0.0,0.4,0.2,-0.4,-0.4,0.4,0.2,0.4,None,None,,,,,,,,,,,,,,,,,0,9,9,9,,,,,,,,,,,,,,,,,,,,,,,,,,,,,,,,,,,,,,,,,,,,,242.42042610002682,243.43274610000663,243.41418599989265,None,243.41418599989265,None,243.41418599989265,None,243.41418599989265,None,243.41418599989265,None,243.41418599989265,None,243.41418599989265,None,243.41418599989265,None,243.41418599989265,None,243.41418599989265,None,243.41418599989265,None,243.41418599989265,None,243.41418599989265,None,None,0,243.41418599989265,None,,,,,,,,,,,,,,,,,,,,,,,,,,,,,,,,,,,,,,,,,,,,,,,,,,,,,a,001,2020_Jun_02_1611,vSearchAlpha4,2020.1.3,60.43555908413729,
0.4,0.0,-0.2,0.2,0.0,0.0,-0.4,-0.2,0.4,0.2,0.0,0.2,-0.2,-0.4,m,0.4,-0.4,0.2,0.4,0.2,-0.4,0.0,0.4,0.4,0.4,None,None,,,,,,,,,,,,,,,,,0,10,10,10,,,,,,,,,,,,,,,,,,,,,,,,,,,,,,,,,,,,,,,,,,,,,246.4219353001099,247.43209069990553,247.41317149996758,None,247.41317149996758,None,247.41317149996758,None,247.41317149996758,None,247.41317149996758,None,247.41317149996758,None,247.41317149996758,None,247.41317149996758,None,247.41317149996758,None,247.41317149996758,None,247.41317149996758,None,247.41317149996758,None,247.41317149996758,None,None,0,247.41317149996758,None,,,,,,,,,,,,,,,,,,,,,,,,,,,,,,,,,,,,,,,,,,,,,,,,,,,,,a,001,2020_Jun_02_1611,vSearchAlpha4,2020.1.3,60.43555908413729,
0.4,-0.2,0.4,0.0,0.2,0.2,None,None,0.0,0.0,-0.2,0.2,-0.4,-0.4,b,0.4,-0.4,0.2,0.4,0.2,-0.4,-0.2,0.4,0.4,0.4,0.2,0.0,,,,,,,,,,,,,,,,,0,11,11,11,,,,,,,,,,,,,,,,,,,,,,,,,,,,,,,,,,,,,,,,,,,,,250.4203186999075,251.43045659991913,251.41180179989897,None,251.41180179989897,None,251.41180179989897,None,251.41180179989897,None,251.41180179989897,None,251.41180179989897,None,251.41180179989897,None,251.41180179989897,None,251.41180179989897,None,251.41180179989897,None,251.41180179989897,None,251.41180179989897,None,251.41180179989897,None,None,0,251.41180179989897,None,,,,,,,,,,,,,,,,,,,,,,,,,,,,,,,,,,,,,,,,,,,,,,,,,,,,,a,001,2020_Jun_02_1611,vSearchAlpha4,2020.1.3,60.43555908413729,
-0.2,0.2,0.4,-0.2,0.0,0.2,0.0,-0.2,-0.4,-0.2,0.0,0.0,-0.4,-0.4,m,0.4,-0.4,0.0,0.4,-0.2,-0.4,-0.2,0.4,0.2,0.4,None,None,,,,,,,,,,,,,,,,,0,12,12,12,,,,,,,,,,,,,,,,,,,,,,,,,,,,,,,,,,,,,,,,,,,,,254.4177469999995,255.43005209998228,255.41013440000825,None,255.41013440000825,None,255.41013440000825,None,255.41013440000825,None,255.41013440000825,None,255.41013440000825,None,255.41013440000825,None,255.41013440000825,None,255.41013440000825,None,255.41013440000825,None,255.41013440000825,None,255.41013440000825,None,255.41013440000825,None,None,0,255.41013440000825,None,,,,,,,,,,,,,,,,,,,,,,,,,,,,,,,,,,,,,,,,,,,,,,,,,,,,,a,001,2020_Jun_02_1611,vSearchAlpha4,2020.1.3,60.43555908413729,
0.4,-0.2,None,None,-0.4,0.0,0.4,0.2,0.0,0.2,0.2,-0.2,-0.2,-0.4,b,0.4,-0.4,0.2,0.4,0.2,-0.4,0.0,0.4,0.0,0.0,0.4,0.4,,,,,,,,,,,,,,,,,0,13,13,13,,,,,,,,,,,,,,,,,,,,,,,,,,,,,,,,,,,,,,,,,,,,,258.4162665999029,259.4306586999446,259.4096903000027,None,259.4096903000027,None,259.4096903000027,None,259.4096903000027,None,259.4096903000027,None,259.4096903000027,None,259.4096903000027,None,259.4096903000027,None,259.4096903000027,None,259.4096903000027,None,259.4096903000027,None,259.4096903000027,None,259.4096903000027,None,None,0,259.4096903000027,None,,,,,,,,,,,,,,,,,,,,,,,,,,,,,,,,,,,,,,,,,,,,,,,,,,,,,a,001,2020_Jun_02_1611,vSearchAlpha4,2020.1.3,60.43555908413729,
0.4,0.2,0.4,0.0,0.2,0.2,0.0,0.2,-0.4,-0.2,0.4,-0.2,-0.2,-0.4,m,0.4,-0.4,0.0,0.4,0.2,-0.4,-0.4,0.4,0.2,0.4,None,None,,,,,,,,,,,,,,,,,0,14,14,14,,,,,,,,,,,,,,,,,,,,,,,,,,,,,,,,,,,,,,,,,,,,,262.41814460000023,263.4255282001104,263.4255282001104,262.41814460000023,263.4255282001104,262.41814460000023,263.4255282001104,262.41814460000023,263.4255282001104,262.41814460000023,263.4255282001104,262.41814460000023,263.4255282001104,262.41814460000023,263.4255282001104,262.41814460000023,263.4255282001104,262.41814460000023,263.4255282001104,262.41814460000023,263.4255282001104,262.41814460000023,263.4255282001104,262.41814460000023,263.4255282001104,262.41814460000023,263.4255282001104,262.41814460000023,None,0,263.4255282001104,262.41814460000023,,,,,,,,,,,,,,,,,,,,,,,,,,,,,,,,,,,,,,,,,,,,,,,,,,,,,a,001,2020_Jun_02_1611,vSearchAlpha4,2020.1.3,60.43555908413729,
-0.4,-0.2,0.2,0.2,0.0,0.0,0.4,-0.2,0.4,0.2,-0.2,0.2,-0.4,-0.4,m,0.0,-0.4,0.2,0.4,-0.2,-0.4,-0.2,0.4,0.4,-0.4,None,None,,,,,,,,,,,,,,,,,0,15,15,15,,,,,,,,,,,,,,,,,,,,,,,,,,,,,,,,,,,,,,,,,,,,,266.4287554998882,267.44266070006415,267.4259812999517,None,267.4259812999517,None,267.4259812999517,None,267.4259812999517,None,267.4259812999517,None,267.4259812999517,None,267.4259812999517,None,267.4259812999517,None,267.4259812999517,None,267.4259812999517,None,267.4259812999517,None,267.4259812999517,None,267.4259812999517,None,None,0,267.4259812999517,None,,,,,,,,,,,,,,,,,,,,,,,,,,,,,,,,,,,,,,,,,,,,,,,,,,,,,a,001,2020_Jun_02_1611,vSearchAlpha4,2020.1.3,60.43555908413729,
0.2,0.2,0.0,0.0,0.0,-0.2,None,None,0.0,0.2,0.4,-0.2,-0.2,-0.4,b,0.4,-0.4,0.0,0.4,0.2,-0.4,-0.4,0.4,0.2,0.4,-0.4,0.0,,,,,,,,,,,,,,,,,0,16,16,16,,,,,,,,,,,,,,,,,,,,,,,,,,,,,,,,,,,,,,,,,,,,,270.42849160009064,271.44178100000136,271.4260754000861,None,271.4260754000861,None,271.4260754000861,None,271.4260754000861,None,271.4260754000861,None,271.4260754000861,None,271.4260754000861,None,271.4260754000861,None,271.4260754000861,None,271.4260754000861,None,271.4260754000861,None,271.4260754000861,None,271.4260754000861,None,None,0,271.4260754000861,None,,,,,,,,,,,,,,,,,,,,,,,,,,,,,,,,,,,,,,,,,,,,,,,,,,,,,a,001,2020_Jun_02_1611,vSearchAlpha4,2020.1.3,60.43555908413729,
None,None,-0.2,0.2,-0.4,-0.2,0.2,0.2,0.0,0.0,0.4,-0.2,-0.2,-0.4,b,0.0,-0.4,0.2,0.4,0.2,-0.4,0.0,0.4,0.4,-0.4,0.4,0.0,,,,,,,,,,,,,,,,,0,17,17,17,,,,,,,,,,,,,,,,,,,,,,,,,,,,,,,,,,,,,,,,,,,,,274.4290452999994,275.45712479995564,275.42576969997026,None,275.42576969997026,None,275.42576969997026,None,275.42576969997026,None,275.42576969997026,None,275.42576969997026,None,275.42576969997026,None,275.42576969997026,None,275.42576969997026,None,275.42576969997026,None,275.42576969997026,None,275.42576969997026,None,275.42576969997026,None,None,0,275.42576969997026,None,,,,,,,,,,,,,,,,,,,,,,,,,,,,,,,,,,,,,,,,,,,,,,,,,,,,,a,001,2020_Jun_02_1611,vSearchAlpha4,2020.1.3,60.43555908413729,
0.0,0.0,None,None,0.4,-0.2,-0.2,0.2,0.2,0.2,0.4,0.0,-0.2,-0.4,b,0.4,-0.4,0.2,0.4,0.2,-0.4,0.4,0.2,0.4,0.4,0.0,0.4,,,,,,,,,,,,,,,,,0,18,18,18,,,,,,,,,,,,,,,,,,,,,,,,,,,,,,,,,,,,,,,,,,,,,278.4302046999801,279.4427561000921,279.42705769999884,None,279.42705769999884,None,279.42705769999884,None,279.42705769999884,None,279.42705769999884,None,279.42705769999884,None,279.42705769999884,None,279.42705769999884,None,279.42705769999884,None,279.42705769999884,None,279.42705769999884,None,279.42705769999884,None,279.42705769999884,None,None,0,279.42705769999884,None,,,,,,,,,,,,,,,,,,,,,,,,,,,,,,,,,,,,,,,,,,,,,,,,,,,,,a,001,2020_Jun_02_1611,vSearchAlpha4,2020.1.3,60.43555908413729,
0.2,0.2,0.0,0.0,0.0,0.2,None,None,-0.4,-0.2,0.4,-0.2,-0.4,-0.4,b,0.4,-0.4,0.0,0.4,-0.2,-0.4,-0.4,0.4,0.2,0.4,-0.4,0.0,,,,,,,,,,,,,,,,,0,19,19,19,,,,,,,,,,,,,,,,,,,,,,,,,,,,,,,,,,,,,,,,,,,,,282.42269139993005,283.4308778999839,283.4066333998926,None,283.4066333998926,None,283.4066333998926,None,283.4066333998926,None,283.4066333998926,None,283.4066333998926,None,283.4066333998926,None,283.4066333998926,None,283.4066333998926,None,283.4066333998926,None,283.4066333998926,None,283.4066333998926,None,283.4066333998926,None,None,0,283.4066333998926,None,,,,,,,,,,,,,,,,,,,,,,,,,,,,,,,,,,,,,,,,,,,,,,,,,,,,,a,001,2020_Jun_02_1611,vSearchAlpha4,2020.1.3,60.43555908413729,
0.0,0.2,-0.4,-0.2,0.4,-0.2,0.0,0.0,-0.2,0.2,0.2,0.2,0.0,0.4,m,0.4,0.2,-0.4,0.4,-0.2,0.0,-0.4,0.2,0.2,0.0,None,None,,,,,,,,,,,,,,,,,0,20,20,20,,,,,,,,,,,,,,,,,,,,,,,,,,,,,,,,,,,,,,,,,,,,,286.42257679998875,287.4378219000064,287.41994139994495,None,287.41994139994495,None,287.41994139994495,None,287.41994139994495,None,287.41994139994495,None,287.41994139994495,None,287.41994139994495,None,287.41994139994495,None,287.41994139994495,None,287.41994139994495,None,287.41994139994495,None,287.41994139994495,None,287.41994139994495,None,None,0,287.41994139994495,None,,,,,,,,,,,,,,,,,,,,,,,,,,,,,,,,,,,,,,,,,,,,,,,,,,,,,a,001,2020_Jun_02_1611,vSearchAlpha4,2020.1.3,60.43555908413729,
0.0,0.2,0.4,0.0,-0.2,0.2,0.0,0.0,-0.4,-0.2,0.4,0.2,-0.2,0.4,m,0.4,0.4,0.0,0.4,0.4,-0.2,-0.4,0.2,-0.4,0.0,None,None,,,,,,,,,,,,,,,,,0,21,21,21,,,,,,,,,,,,,,,,,,,,,,,,,,,,,,,,,,,,,,,,,,,,,290.42387560009956,291.4363118999172,291.4187229999807,None,291.4187229999807,None,291.4187229999807,None,291.4187229999807,None,291.4187229999807,None,291.4187229999807,None,291.4187229999807,None,291.4187229999807,None,291.4187229999807,None,291.4187229999807,None,291.4187229999807,None,291.4187229999807,None,291.4187229999807,None,None,0,291.4187229999807,None,,,,,,,,,,,,,,,,,,,,,,,,,,,,,,,,,,,,,,,,,,,,,,,,,,,,,a,001,2020_Jun_02_1611,vSearchAlpha4,2020.1.3,60.43555908413729,
-0.2,0.2,-0.4,-0.2,-0.4,0.0,None,None,0.2,0.2,0.0,0.0,0.0,0.2,b,-0.2,0.0,0.2,-0.2,0.0,-0.2,0.4,0.0,0.4,0.2,-0.2,-0.2,,,,,,,,,,,,,,,,,0,22,22,22,,,,,,,,,,,,,,,,,,,,,,,,,,,,,,,,,,,,,,,,,,,,,294.42722299997695,295.43675419990905,295.4187698001042,None,295.4187698001042,None,295.4187698001042,None,295.4187698001042,None,295.4187698001042,None,295.4187698001042,None,295.4187698001042,None,295.4187698001042,None,295.4187698001042,None,295.4187698001042,None,295.4187698001042,None,295.4187698001042,None,295.4187698001042,None,None,0,295.4187698001042,None,,,,,,,,,,,,,,,,,,,,,,,,,,,,,,,,,,,,,,,,,,,,,,,,,,,,,a,001,2020_Jun_02_1611,vSearchAlpha4,2020.1.3,60.43555908413729,
0.2,0.2,-0.4,0.2,-0.4,-0.2,0.0,0.2,-0.4,0.0,0.4,-0.2,-0.4,-0.4,m,-0.2,0.4,0.0,-0.4,0.4,0.2,0.4,0.4,0.4,0.0,None,None,,,,,,,,,,,,,,,,,0,23,23,23,,,,,,,,,,,,,,,,,,,,,,,,,,,,,,,,,,,,,,,,,,,,,298.4225029000081,299.4371621001046,299.4213113000151,None,299.4213113000151,None,299.4213113000151,None,299.4213113000151,None,299.4213113000151,None,299.4213113000151,None,299.4213113000151,None,299.4213113000151,None,299.4213113000151,None,299.4213113000151,None,299.4213113000151,None,299.4213113000151,None,299.4213113000151,None,None,0,299.4213113000151,None,,,,,,,,,,,,,,,,,,,,,,,,,,,,,,,,,,,,,,,,,,,,,,,,,,,,,a,001,2020_Jun_02_1611,vSearchAlpha4,2020.1.3,60.43555908413729,
0.4,-0.2,0.0,0.2,None,None,-0.4,-0.2,0.0,0.0,0.2,0.2,0.2,0.0,b,0.2,-0.2,-0.4,0.0,-0.2,0.0,0.4,0.2,0.4,0.0,0.0,-0.2,,,,,,,,,,,,,,,,,0,24,24,24,,,,,,,,,,,,,,,,,,,,,,,,,,,,,,,,,,,,,,,,,,,,,302.4187211000826,303.4333693999797,303.4148719001096,None,303.4148719001096,None,303.4148719001096,None,303.4148719001096,None,303.4148719001096,None,303.4148719001096,None,303.4148719001096,None,303.4148719001096,None,303.4148719001096,None,303.4148719001096,None,303.4148719001096,None,303.4148719001096,None,303.4148719001096,None,None,0,303.4148719001096,None,,,,,,,,,,,,,,,,,,,,,,,,,,,,,,,,,,,,,,,,,,,,,,,,,,,,,a,001,2020_Jun_02_1611,vSearchAlpha4,2020.1.3,60.43555908413729,
0.2,0.0,-0.2,0.2,0.4,-0.2,0.0,0.2,0.0,-0.2,-0.4,-0.2,-0.2,0.4,b,-0.2,0.0,-0.2,-0.2,None,None,-0.4,0.0,0.4,0.0,-0.2,-0.4,,,,,,,,,,,,,,,,,0,25,25,25,,,,,,,,,,,,,,,,,,,,,,,,,,,,,,,,,,,,,,,,,,,,,306.4192331000231,307.4335189999547,307.4153764001094,None,307.4153764001094,None,307.4153764001094,None,307.4153764001094,None,307.4153764001094,None,307.4153764001094,None,307.4153764001094,None,307.4153764001094,None,307.4153764001094,None,307.4153764001094,None,307.4153764001094,None,307.4153764001094,None,307.4153764001094,None,None,0,307.4153764001094,None,,,,,,,,,,,,,,,,,,,,,,,,,,,,,,,,,,,,,,,,,,,,,,,,,,,,,a,001,2020_Jun_02_1611,vSearchAlpha4,2020.1.3,60.43555908413729,
0.4,0.0,0.4,0.2,0.0,0.2,0.2,0.2,0.4,-0.2,-0.4,-0.2,-0.2,-0.2,m,0.0,-0.2,0.2,-0.2,-0.4,0.0,-0.2,0.2,0.0,0.4,None,None,,,,,,,,,,,,,,,,,0,26,26,26,,,,,,,,,,,,,,,,,,,,,,,,,,,,,,,,,,,,,,,,,,,,,310.41816339991055,311.432353900047,311.41347380005755,None,311.41347380005755,None,311.41347380005755,None,311.41347380005755,None,311.41347380005755,None,311.41347380005755,None,311.41347380005755,None,311.41347380005755,None,311.41347380005755,None,311.41347380005755,None,311.41347380005755,None,311.41347380005755,None,311.41347380005755,None,None,0,311.41347380005755,None,,,,,,,,,,,,,,,,,,,,,,,,,,,,,,,,,,,,,,,,,,,,,,,,,,,,,a,001,2020_Jun_02_1611,vSearchAlpha4,2020.1.3,60.43555908413729,
0.2,-0.2,None,None,0.4,-0.2,-0.4,0.0,0.4,0.2,0.0,0.2,-0.4,0.2,b,-0.4,-0.2,-0.2,0.4,-0.2,0.2,-0.2,0.0,0.2,0.0,0.4,0.0,,,,,,,,,,,,,,,,,0,27,27,27,,,,,,,,,,,,,,,,,,,,,,,,,,,,,,,,,,,,,,,,,,,,,314.4255564000923,315.4305342999287,315.4124519000761,None,315.4124519000761,None,315.4124519000761,None,315.4124519000761,None,315.4124519000761,None,315.4124519000761,None,315.4124519000761,None,315.4124519000761,None,315.4124519000761,None,315.4124519000761,None,315.4124519000761,None,315.4124519000761,None,315.4124519000761,None,None,0,315.4124519000761,None,,,,,,,,,,,,,,,,,,,,,,,,,,,,,,,,,,,,,,,,,,,,,,,,,,,,,a,001,2020_Jun_02_1611,vSearchAlpha4,2020.1.3,60.43555908413729,
-0.2,0.2,0.2,0.2,0.4,0.2,0.0,0.2,None,None,0.2,-0.2,-0.2,0.4,b,0.0,0.4,-0.4,-0.2,-0.2,-0.2,0.0,-0.2,0.4,-0.4,-0.2,-0.4,,,,,,,,,,,,,,,,,0,28,28,28,,,,,,,,,,,,,,,,,,,,,,,,,,,,,,,,,,,,,,,,,,,,,318.42484320001677,319.43121999991126,319.4111776999198,None,319.4111776999198,None,319.4111776999198,None,319.4111776999198,None,319.4111776999198,None,319.4111776999198,None,319.4111776999198,None,319.4111776999198,None,319.4111776999198,None,319.4111776999198,None,319.4111776999198,None,319.4111776999198,None,319.4111776999198,None,None,0,319.4111776999198,None,,,,,,,,,,,,,,,,,,,,,,,,,,,,,,,,,,,,,,,,,,,,,,,,,,,,,a,001,2020_Jun_02_1611,vSearchAlpha4,2020.1.3,60.43555908413729,
0.0,0.0,0.2,0.2,None,None,0.0,-0.2,0.4,-0.2,0.0,0.2,0.0,-0.4,b,0.2,0.0,0.2,-0.2,0.4,0.4,0.4,0.0,-0.4,0.0,0.4,0.2,,,,,,,,,,,,,,,,,0,29,29,29,,,,,,,,,,,,,,,,,,,,,,,,,,,,,,,,,,,,,,,,,,,,,322.43250879994594,323.4586128999945,323.4101495000068,None,323.4101495000068,None,323.4101495000068,None,323.4101495000068,None,323.4101495000068,None,323.4101495000068,None,323.4101495000068,None,323.4101495000068,None,323.4101495000068,None,323.4101495000068,None,323.4101495000068,None,323.4101495000068,None,323.4101495000068,None,None,0,323.4101495000068,None,,,,,,,,,,,,,,,,,,,,,,,,,,,,,,,,,,,,,,,,,,,,,,,,,,,,,a,001,2020_Jun_02_1611,vSearchAlpha4,2020.1.3,60.43555908413729,
0.0,-0.2,0.2,0.0,-0.4,-0.2,0.2,0.2,0.0,0.2,0.4,0.2,-0.4,0.2,m,-0.2,0.4,-0.2,0.2,-0.2,0.0,-0.2,-0.2,0.4,-0.2,None,None,,,,,,,,,,,,,,,,,0,30,30,30,,,,,,,,,,,,,,,,,,,,,,,,,,,,,,,,,,,,,,,,,,,,,326.4166162000038,327.43084600009024,327.41076359990984,326.4166162000038,327.41076359990984,326.4166162000038,327.41076359990984,326.4166162000038,327.41076359990984,326.4166162000038,327.41076359990984,326.4166162000038,327.41076359990984,326.4166162000038,327.41076359990984,326.4166162000038,327.41076359990984,326.4166162000038,327.41076359990984,326.4166162000038,327.41076359990984,326.4166162000038,327.41076359990984,326.4166162000038,327.41076359990984,326.4166162000038,327.41076359990984,326.4166162000038,None,0,327.41076359990984,326.4166162000038,,,,,,,,,,,,,,,,,,,,,,,,,,,,,,,,,,,,,,,,,,,,,,,,,,,,,a,001,2020_Jun_02_1611,vSearchAlpha4,2020.1.3,60.43555908413729,
-0.2,0.2,0.4,-0.2,0.0,0.2,0.0,-0.2,-0.4,-0.2,0.0,0.0,-0.4,0.0,m,0.4,0.0,-0.2,0.0,0.2,0.0,-0.2,-0.2,-0.4,0.4,None,None,,,,,,,,,,,,,,,,,0,31,31,31,,,,,,,,,,,,,,,,,,,,,,,,,,,,,,,,,,,,,,,,,,,,,330.4309133000206,331.4425142998807,331.42624430009164,None,331.42624430009164,None,331.42624430009164,None,331.42624430009164,None,331.42624430009164,None,331.42624430009164,None,331.42624430009164,None,331.42624430009164,None,331.42624430009164,None,331.42624430009164,None,331.42624430009164,None,331.42624430009164,None,331.42624430009164,None,None,0,331.42624430009164,None,,,,,,,,,,,,,,,,,,,,,,,,,,,,,,,,,,,,,,,,,,,,,,,,,,,,,a,001,2020_Jun_02_1611,vSearchAlpha4,2020.1.3,60.43555908413729,
-0.4,0.2,0.0,0.0,0.0,-0.2,None,None,0.0,0.2,-0.4,-0.2,0.0,-0.4,b,0.2,-0.4,0.4,0.0,0.4,0.4,0.4,0.2,0.4,-0.2,-0.4,0.0,,,,,,,,,,,,,,,,,0,32,32,32,,,,,,,,,,,,,,,,,,,,,,,,,,,,,,,,,,,,,,,,,,,,,334.42973319999874,335.44195199990645,335.4255979999434,None,335.4255979999434,None,335.4255979999434,None,335.4255979999434,None,335.4255979999434,None,335.4255979999434,None,335.4255979999434,None,335.4255979999434,None,335.4255979999434,None,335.4255979999434,None,335.4255979999434,None,335.4255979999434,None,335.4255979999434,None,None,0,335.4255979999434,None,,,,,,,,,,,,,,,,,,,,,,,,,,,,,,,,,,,,,,,,,,,,,,,,,,,,,a,001,2020_Jun_02_1611,vSearchAlpha4,2020.1.3,60.43555908413729,
0.4,0.0,-0.2,0.2,-0.4,0.0,-0.4,-0.2,0.4,0.2,0.0,0.2,-0.4,0.4,m,-0.4,0.2,-0.2,0.0,-0.2,-0.2,-0.2,-0.4,0.0,-0.2,None,None,,,,,,,,,,,,,,,,,0,33,33,33,,,,,,,,,,,,,,,,,,,,,,,,,,,,,,,,,,,,,,,,,,,,,338.4286889999639,339.4407981999684,339.4235785000492,None,339.4235785000492,None,339.4235785000492,None,339.4235785000492,None,339.4235785000492,None,339.4235785000492,None,339.4235785000492,None,339.4235785000492,None,339.4235785000492,None,339.4235785000492,None,339.4235785000492,None,339.4235785000492,None,339.4235785000492,None,None,0,339.4235785000492,None,,,,,,,,,,,,,,,,,,,,,,,,,,,,,,,,,,,,,,,,,,,,,,,,,,,,,a,001,2020_Jun_02_1611,vSearchAlpha4,2020.1.3,60.43555908413729,
0.4,-0.2,0.2,-0.2,-0.4,0.0,0.4,0.2,0.0,0.0,None,None,0.0,0.2,b,-0.2,0.2,0.2,0.2,-0.2,0.0,0.2,0.0,0.4,0.0,0.4,-0.4,,,,,,,,,,,,,,,,,0,34,34,34,,,,,,,,,,,,,,,,,,,,,,,,,,,,,,,,,,,,,,,,,,,,,342.42854540003464,343.44113530009054,343.4239590000361,None,343.4239590000361,None,343.4239590000361,None,343.4239590000361,None,343.4239590000361,None,343.4239590000361,None,343.4239590000361,None,343.4239590000361,None,343.4239590000361,None,343.4239590000361,None,343.4239590000361,None,343.4239590000361,None,343.4239590000361,None,None,0,343.4239590000361,None,,,,,,,,,,,,,,,,,,,,,,,,,,,,,,,,,,,,,,,,,,,,,,,,,,,,,a,001,2020_Jun_02_1611,vSearchAlpha4,2020.1.3,60.43555908413729,
-0.4,-0.2,0.4,-0.2,0.4,0.2,0.4,0.0,0.2,0.2,0.0,0.2,None,None,b,-0.4,0.0,-0.2,0.2,0.2,-0.4,0.0,-0.2,0.0,0.4,-0.4,0.2,,,,,,,,,,,,,,,,,0,35,35,35,,,,,,,,,,,,,,,,,,,,,,,,,,,,,,,,,,,,,,,,,,,,,346.42683440004475,347.4409600000363,347.4235954999458,None,347.4235954999458,None,347.4235954999458,None,347.4235954999458,None,347.4235954999458,None,347.4235954999458,None,347.4235954999458,None,347.4235954999458,None,347.4235954999458,None,347.4235954999458,None,347.4235954999458,None,347.4235954999458,None,347.4235954999458,None,None,0,347.4235954999458,None,,,,,,,,,,,,,,,,,,,,,,,,,,,,,,,,,,,,,,,,,,,,,,,,,,,,,a,001,2020_Jun_02_1611,vSearchAlpha4,2020.1.3,60.43555908413729,
0.4,0.2,0.4,0.0,0.2,0.2,0.0,0.2,-0.4,-0.2,0.4,-0.2,-0.4,0.2,m,-0.2,-0.2,-0.2,0.2,0.0,-0.2,0.0,-0.4,0.2,-0.2,None,None,,,,,,,,,,,,,,,,,0,36,36,36,,,,,,,,,,,,,,,,,,,,,,,,,,,,,,,,,,,,,,,,,,,,,350.429061899893,351.4356529000215,351.4356529000215,None,351.4356529000215,None,351.4356529000215,None,351.4356529000215,None,351.4356529000215,None,351.4356529000215,None,351.4356529000215,None,351.4356529000215,None,351.4356529000215,None,351.4356529000215,None,351.4356529000215,None,351.4356529000215,None,351.4356529000215,None,None,0,351.4356529000215,None,,,,,,,,,,,,,,,,,,,,,,,,,,,,,,,,,,,,,,,,,,,,,,,,,,,,,a,001,2020_Jun_02_1611,vSearchAlpha4,2020.1.3,60.43555908413729,
0.0,0.0,0.4,0.2,0.4,-0.2,-0.2,0.2,0.2,0.2,0.4,0.0,-0.4,0.2,m,0.0,-0.2,-0.4,-0.2,0.0,-0.4,0.2,-0.4,-0.4,0.0,None,None,,,,,,,,,,,,,,,,,0,37,37,37,,,,,,,,,,,,,,,,,,,,,,,,,,,,,,,,,,,,,,,,,,,,,354.4271754999645,355.45140690007247,355.43160629994236,None,355.43160629994236,None,355.43160629994236,None,355.43160629994236,None,355.43160629994236,None,355.43160629994236,None,355.43160629994236,None,355.43160629994236,None,355.43160629994236,None,355.43160629994236,None,355.43160629994236,None,355.43160629994236,None,355.43160629994236,None,None,0,355.43160629994236,None,,,,,,,,,,,,,,,,,,,,,,,,,,,,,,,,,,,,,,,,,,,,,,,,,,,,,a,001,2020_Jun_02_1611,vSearchAlpha4,2020.1.3,60.43555908413729,
-0.4,-0.2,0.2,0.2,0.0,0.0,0.4,-0.2,0.4,0.2,-0.2,0.2,-0.4,-0.4,b,0.2,0.0,0.4,None,None,-0.2,-0.2,0.0,0.0,-0.2,0.0,0.2,,,,,,,,,,,,,,,,,0,38,38,38,,,,,,,,,,,,,,,,,,,,,,,,,,,,,,,,,,,,,,,,,,,,,358.4268932000268,359.4378054998815,359.42034139996395,None,359.42034139996395,None,359.42034139996395,None,359.42034139996395,None,359.42034139996395,None,359.42034139996395,None,359.42034139996395,None,359.42034139996395,None,359.42034139996395,None,359.42034139996395,None,359.42034139996395,None,359.42034139996395,None,359.42034139996395,None,None,0,359.42034139996395,None,,,,,,,,,,,,,,,,,,,,,,,,,,,,,,,,,,,,,,,,,,,,,,,,,,,,,a,001,2020_Jun_02_1611,vSearchAlpha4,2020.1.3,60.43555908413729,
0.4,0.2,-0.4,-0.2,0.4,0.0,0.0,0.2,0.0,0.0,-0.2,0.2,0.0,-0.4,m,-0.4,0.0,0.2,0.0,-0.4,0.4,-0.4,0.2,-0.2,-0.2,None,None,,,,,,,,,,,,,,,,,0,39,39,39,,,,,,,,,,,,,,,,,,,,,,,,,,,,,,,,,,,,,,,,,,,,,362.4257209999487,363.4333285000175,363.41651510004885,None,363.41651510004885,None,363.41651510004885,None,363.41651510004885,None,363.41651510004885,None,363.41651510004885,None,363.41651510004885,None,363.41651510004885,None,363.41651510004885,None,363.41651510004885,None,363.41651510004885,None,363.41651510004885,None,363.41651510004885,None,None,0,363.41651510004885,None,,,,,,,,,,,,,,,,,,,,,,,,,,,,,,,,,,,,,,,,,,,,,,,,,,,,,a,001,2020_Jun_02_1611,vSearchAlpha4,2020.1.3,60.43555908413729,
,,,,,,,,,,,,,,,,,,,,,,,,,,,,,,,,,,,,,,,,,,,,,,,,,,,,,,,,,,,,,,,,,,,,,,,,,,,,,,,,,,,,,,,,,,,,,,,,,,,,,,,,,,,,,,,,,,,,,,,,,,,366.4153938998934,None,space,53.89338529994711,366.4153938998934,None,,,,,,,,,,,,,,,,,,,,,,,,,,,,,,,,,,,,,,,,,,,,,,,a,001,2020_Jun_02_1611,vSearchAlpha4,2020.1.3,60.43555908413729,
None,None,-0.4,-0.2,0.4,-0.2,0.0,0.0,-0.2,0.2,0.2,0.2,-0.4,-0.4,b,0.4,-0.4,0.2,0.4,0.0,-0.4,-0.2,0.4,0.4,0.4,0.0,0.4,0.4,0.2,-0.4,0.4,-0.2,0.0,-0.4,0.2,0.2,0.0,0.0,0.2,,,,,,,,,0,0,0,0,,,,,,,,,,,,,,,,,,,,,,,,,,,,,,,,,,,,,,,,,,,,,,,,,,,,,,,,,,,,,,,,,,,,,,,,,,,,,,,420.426987899933,421.43977000005543,421.4224515000824,None,421.4224515000824,None,421.4224515000824,None,421.4224515000824,None,421.4224515000824,None,421.4224515000824,None,421.4224515000824,None,421.4224515000824,None,421.4224515000824,None,421.4224515000824,None,421.4224515000824,None,421.4224515000824,None,421.4224515000824,None,421.4224515000824,None,421.4224515000824,None,421.4224515000824,None,421.4224515000824,None,421.4224515000824,None,421.4224515000824,None,None,0,421.4224515000824,None,,,a,001,2020_Jun_02_1611,vSearchAlpha4,2020.1.3,60.43555908413729,
0.0,0.2,0.4,0.0,-0.2,0.2,0.0,0.0,-0.4,-0.2,0.4,0.2,-0.2,-0.4,m,0.0,-0.4,0.2,0.4,0.2,-0.4,-0.4,0.4,0.4,-0.4,-0.2,0.4,0.4,0.4,0.0,0.4,0.4,-0.2,-0.4,0.2,-0.4,0.0,None,None,,,,,,,,,0,1,1,1,,,,,,,,,,,,,,,,,,,,,,,,,,,,,,,,,,,,,,,,,,,,,,,,,,,,,,,,,,,,,,,,,,,,,,,,,,,,,,,424.37108050007373,425.39378520008177,425.37032680003904,None,425.37032680003904,None,425.37032680003904,None,425.37032680003904,None,425.37032680003904,None,425.37032680003904,None,425.37032680003904,None,425.37032680003904,None,425.37032680003904,None,425.37032680003904,None,425.37032680003904,None,425.37032680003904,None,425.37032680003904,None,425.37032680003904,None,425.37032680003904,None,425.37032680003904,None,425.37032680003904,None,425.37032680003904,None,425.37032680003904,None,None,0,425.37032680003904,None,,,a,001,2020_Jun_02_1611,vSearchAlpha4,2020.1.3,60.43555908413729,
-0.2,0.2,-0.4,-0.2,-0.4,0.0,None,None,0.2,0.2,0.0,0.0,-0.4,-0.4,b,0.4,-0.4,0.0,0.4,-0.2,-0.4,-0.2,0.4,0.2,0.4,0.0,0.2,-0.2,0.0,0.2,-0.2,0.0,-0.2,0.4,0.0,0.4,0.2,-0.2,-0.2,,,,,,,,,0,2,2,2,,,,,,,,,,,,,,,,,,,,,,,,,,,,,,,,,,,,,,,,,,,,,,,,,,,,,,,,,,,,,,,,,,,,,,,,,,,,,,,428.3632443000097,429.3716998999007,429.35158360004425,None,429.35158360004425,None,429.35158360004425,None,429.35158360004425,None,429.35158360004425,None,429.35158360004425,None,429.35158360004425,None,429.35158360004425,None,429.35158360004425,None,429.35158360004425,None,429.35158360004425,None,429.35158360004425,None,429.35158360004425,None,429.35158360004425,None,429.35158360004425,None,429.35158360004425,None,429.35158360004425,None,429.35158360004425,None,429.35158360004425,None,None,0,429.35158360004425,None,,,a,001,2020_Jun_02_1611,vSearchAlpha4,2020.1.3,60.43555908413729,
0.2,0.2,-0.4,0.2,-0.4,-0.2,0.0,0.2,None,None,0.4,-0.2,-0.2,-0.4,b,0.4,-0.4,0.0,0.4,0.2,-0.4,-0.4,0.4,0.2,0.4,-0.4,-0.4,-0.2,0.4,0.0,-0.4,0.4,0.2,0.4,0.4,0.4,0.0,-0.4,0.0,,,,,,,,,0,3,3,3,,,,,,,,,,,,,,,,,,,,,,,,,,,,,,,,,,,,,,,,,,,,,,,,,,,,,,,,,,,,,,,,,,,,,,,,,,,,,,,432.36049799993634,433.36724280007184,433.34846080001444,None,433.34846080001444,None,433.34846080001444,None,433.34846080001444,None,433.34846080001444,None,433.34846080001444,None,433.34846080001444,None,433.34846080001444,None,433.34846080001444,None,433.34846080001444,None,433.34846080001444,None,433.34846080001444,None,433.34846080001444,None,433.34846080001444,None,433.34846080001444,None,433.34846080001444,None,433.34846080001444,None,433.34846080001444,None,433.34846080001444,None,None,0,433.34846080001444,None,,,a,001,2020_Jun_02_1611,vSearchAlpha4,2020.1.3,60.43555908413729,
0.4,-0.2,0.0,0.2,None,None,-0.4,-0.2,0.0,0.0,0.2,0.2,-0.4,-0.4,b,0.4,-0.4,0.2,0.4,-0.2,-0.4,0.0,0.4,0.4,0.4,0.2,0.0,0.2,-0.2,-0.4,0.0,-0.2,0.0,0.4,0.2,0.4,0.0,0.0,-0.2,,,,,,,,,0,4,4,4,,,,,,,,,,,,,,,,,,,,,,,,,,,,,,,,,,,,,,,,,,,,,,,,,,,,,,,,,,,,,,,,,,,,,,,,,,,,,,,436.3603852998931,437.36856639990583,437.34963460010476,None,437.34963460010476,None,437.34963460010476,None,437.34963460010476,None,437.34963460010476,None,437.34963460010476,None,437.34963460010476,None,437.34963460010476,None,437.34963460010476,None,437.34963460010476,None,437.34963460010476,None,437.34963460010476,None,437.34963460010476,None,437.34963460010476,None,437.34963460010476,None,437.34963460010476,None,437.34963460010476,None,437.34963460010476,None,437.34963460010476,None,None,0,437.34963460010476,None,,,a,001,2020_Jun_02_1611,vSearchAlpha4,2020.1.3,60.43555908413729,
0.2,0.0,-0.2,0.2,0.4,-0.2,0.0,0.2,0.0,-0.2,-0.4,-0.2,-0.4,-0.4,m,0.4,-0.4,0.2,0.4,0.2,-0.4,0.0,0.4,0.4,0.4,-0.2,0.4,-0.2,0.0,-0.2,-0.2,-0.2,-0.4,-0.4,0.0,0.4,0.0,None,None,,,,,,,,,0,5,5,5,,,,,,,,,,,,,,,,,,,,,,,,,,,,,,,,,,,,,,,,,,,,,,,,,,,,,,,,,,,,,,,,,,,,,,,,,,,,,,,440.35969260009006,441.36744170007296,441.3473092999775,None,441.3473092999775,None,441.3473092999775,None,441.3473092999775,None,441.3473092999775,None,441.3473092999775,None,441.3473092999775,None,441.3473092999775,None,441.3473092999775,None,441.3473092999775,None,441.3473092999775,None,441.3473092999775,None,441.3473092999775,None,441.3473092999775,None,441.3473092999775,None,441.3473092999775,None,441.3473092999775,None,441.3473092999775,None,441.3473092999775,None,None,0,441.3473092999775,None,,,a,001,2020_Jun_02_1611,vSearchAlpha4,2020.1.3,60.43555908413729,
0.2,-0.2,None,None,0.4,-0.2,-0.4,0.0,0.4,0.2,0.0,0.2,-0.4,-0.4,b,0.0,-0.4,0.2,0.4,0.0,-0.2,-0.4,0.4,0.4,-0.4,-0.4,0.2,-0.4,-0.2,-0.2,0.4,-0.2,0.2,-0.2,0.0,0.2,0.0,0.4,0.0,,,,,,,,,0,6,6,6,,,,,,,,,,,,,,,,,,,,,,,,,,,,,,,,,,,,,,,,,,,,,,,,,,,,,,,,,,,,,,,,,,,,,,,,,,,,,,,444.3600482000038,445.3669737998862,445.3468291000463,None,445.3468291000463,None,445.3468291000463,None,445.3468291000463,None,445.3468291000463,None,445.3468291000463,None,445.3468291000463,None,445.3468291000463,None,445.3468291000463,None,445.3468291000463,None,445.3468291000463,None,445.3468291000463,None,445.3468291000463,None,445.3468291000463,None,445.3468291000463,None,445.3468291000463,None,445.3468291000463,None,445.3468291000463,None,445.3468291000463,None,None,0,445.3468291000463,None,,,a,001,2020_Jun_02_1611,vSearchAlpha4,2020.1.3,60.43555908413729,
0.4,0.0,0.4,0.2,0.0,0.2,0.2,0.2,0.4,-0.2,-0.4,-0.2,-0.4,-0.4,m,0.0,-0.4,0.2,0.4,-0.2,-0.4,-0.2,0.4,0.4,-0.4,-0.2,-0.2,0.0,-0.2,0.2,-0.2,-0.4,0.0,-0.2,0.2,0.0,0.4,None,None,,,,,,,,,0,7,7,7,,,,,,,,,,,,,,,,,,,,,,,,,,,,,,,,,,,,,,,,,,,,,,,,,,,,,,,,,,,,,,,,,,,,,,,,,,,,,,,448.36027910001576,449.3665602998808,449.3461978000123,None,449.3461978000123,None,449.3461978000123,None,449.3461978000123,None,449.3461978000123,None,449.3461978000123,None,449.3461978000123,None,449.3461978000123,None,449.3461978000123,None,449.3461978000123,None,449.3461978000123,None,449.3461978000123,None,449.3461978000123,None,449.3461978000123,None,449.3461978000123,None,449.3461978000123,None,449.3461978000123,None,449.3461978000123,None,449.3461978000123,None,None,0,449.3461978000123,None,,,a,001,2020_Jun_02_1611,vSearchAlpha4,2020.1.3,60.43555908413729,
-0.2,0.2,0.2,0.2,0.4,0.2,0.0,0.2,None,None,0.2,-0.2,0.0,0.0,b,0.0,-0.4,0.2,0.4,0.2,-0.4,-0.4,0.4,0.4,0.4,-0.2,0.4,0.0,0.4,-0.4,-0.2,-0.2,-0.2,0.0,-0.2,0.4,-0.4,-0.2,-0.4,,,,,,,,,0,8,8,8,,,,,,,,,,,,,,,,,,,,,,,,,,,,,,,,,,,,,,,,,,,,,,,,,,,,,,,,,,,,,,,,,,,,,,,,,,,,,,,452.36008609994315,453.3655069998931,453.34576789988205,None,453.34576789988205,None,453.34576789988205,None,453.34576789988205,None,453.34576789988205,None,453.34576789988205,None,453.34576789988205,None,453.34576789988205,None,453.34576789988205,None,453.34576789988205,None,453.34576789988205,None,453.34576789988205,None,453.34576789988205,None,453.34576789988205,None,453.34576789988205,None,453.34576789988205,None,453.34576789988205,None,453.34576789988205,None,453.34576789988205,None,None,0,453.34576789988205,None,,,a,001,2020_Jun_02_1611,vSearchAlpha4,2020.1.3,60.43555908413729,
0.0,0.0,0.2,0.2,None,None,0.0,-0.2,0.4,-0.2,0.0,0.2,-0.4,-0.4,b,0.4,-0.4,0.0,0.4,0.2,-0.4,-0.4,0.4,0.2,0.4,0.0,-0.4,0.2,0.0,0.2,-0.2,0.4,0.4,0.4,0.0,-0.4,0.0,0.4,0.2,,,,,,,,,0,9,9,9,,,,,,,,,,,,,,,,,,,,,,,,,,,,,,,,,,,,,,,,,,,,,,,,,,,,,,,,,,,,,,,,,,,,,,,,,,,,,,,456.35624510003254,457.3633266999386,457.34355319989845,None,457.34355319989845,None,457.34355319989845,None,457.34355319989845,None,457.34355319989845,None,457.34355319989845,None,457.34355319989845,None,457.34355319989845,None,457.34355319989845,None,457.34355319989845,None,457.34355319989845,None,457.34355319989845,None,457.34355319989845,None,457.34355319989845,None,457.34355319989845,None,457.34355319989845,None,457.34355319989845,None,457.34355319989845,None,457.34355319989845,None,None,0,457.34355319989845,None,,,a,001,2020_Jun_02_1611,vSearchAlpha4,2020.1.3,60.43555908413729,
0.0,-0.2,0.2,0.0,-0.4,-0.2,0.2,0.2,0.0,0.2,0.4,0.2,-0.2,-0.4,m,0.4,-0.4,0.2,0.4,0.2,-0.4,0.0,0.4,0.4,0.4,-0.4,0.2,-0.2,0.4,-0.2,0.2,-0.2,0.0,-0.2,-0.2,0.4,-0.2,None,None,,,,,,,,,0,10,10,10,,,,,,,,,,,,,,,,,,,,,,,,,,,,,,,,,,,,,,,,,,,,,,,,,,,,,,,,,,,,,,,,,,,,,,,,,,,,,,,460.35719299991615,461.3645790000446,461.34396700002253,None,461.34396700002253,None,461.34396700002253,None,461.34396700002253,None,461.34396700002253,None,461.34396700002253,None,461.34396700002253,None,461.34396700002253,None,461.34396700002253,None,461.34396700002253,None,461.34396700002253,None,461.34396700002253,None,461.34396700002253,None,461.34396700002253,None,461.34396700002253,None,461.34396700002253,None,461.34396700002253,None,461.34396700002253,None,461.34396700002253,None,None,0,461.34396700002253,None,,,a,001,2020_Jun_02_1611,vSearchAlpha4,2020.1.3,60.43555908413729,
0.4,0.0,-0.2,0.2,-0.4,0.0,-0.4,-0.2,0.4,0.2,0.0,0.2,-0.4,-0.4,m,0.0,-0.4,0.2,0.4,0.2,-0.4,-0.2,0.4,0.4,-0.2,-0.4,0.4,-0.4,0.2,-0.2,0.0,-0.2,-0.2,-0.2,-0.4,0.0,-0.2,None,None,,,,,,,,,0,11,11,11,,,,,,,,,,,,,,,,,,,,,,,,,,,,,,,,,,,,,,,,,,,,,,,,,,,,,,,,,,,,,,,,,,,,,,,,,,,,,,,464.35628030006774,465.3622298000846,465.34114659996703,None,465.34114659996703,None,465.34114659996703,None,465.34114659996703,None,465.34114659996703,None,465.34114659996703,None,465.34114659996703,None,465.34114659996703,None,465.34114659996703,None,465.34114659996703,None,465.34114659996703,None,465.34114659996703,None,465.34114659996703,None,465.34114659996703,None,465.34114659996703,None,465.34114659996703,None,465.34114659996703,None,465.34114659996703,None,465.34114659996703,None,None,0,465.34114659996703,None,,,a,001,2020_Jun_02_1611,vSearchAlpha4,2020.1.3,60.43555908413729,
-0.4,0.2,0.0,0.0,0.0,-0.2,None,None,0.0,0.2,-0.4,-0.2,-0.4,-0.4,b,0.4,-0.4,0.0,0.4,-0.2,-0.4,-0.2,0.4,0.2,0.4,0.0,-0.4,0.2,-0.4,0.4,0.0,0.4,0.4,0.4,0.2,0.4,-0.2,-0.4,0.0,,,,,,,,,0,12,12,12,,,,,,,,,,,,,,,,,,,,,,,,,,,,,,,,,,,,,,,,,,,,,,,,,,,,,,,,,,,,,,,,,,,,,,,,,,,,,,,468.3655864999164,469.3789484000299,469.36032589990646,None,469.36032589990646,None,469.36032589990646,None,469.36032589990646,None,469.36032589990646,None,469.36032589990646,None,469.36032589990646,None,469.36032589990646,None,469.36032589990646,None,469.36032589990646,None,469.36032589990646,None,469.36032589990646,None,469.36032589990646,None,469.36032589990646,None,469.36032589990646,None,469.36032589990646,None,469.36032589990646,None,469.36032589990646,None,469.36032589990646,None,None,0,469.36032589990646,None,,,a,001,2020_Jun_02_1611,vSearchAlpha4,2020.1.3,60.43555908413729,
-0.2,0.2,0.4,-0.2,0.0,0.2,0.0,-0.2,-0.4,-0.2,0.0,0.0,-0.2,-0.4,m,0.4,-0.4,0.2,0.4,0.2,-0.4,0.0,0.4,0.4,0.4,-0.4,0.0,0.4,0.0,-0.2,0.0,0.2,0.0,-0.2,-0.2,-0.4,0.4,None,None,,,,,,,,,0,13,13,13,,,,,,,,,,,,,,,,,,,,,,,,,,,,,,,,,,,,,,,,,,,,,,,,,,,,,,,,,,,,,,,,,,,,,,,,,,,,,,,472.3540082999971,473.36330899992026,473.3426763000898,None,473.3426763000898,None,473.3426763000898,None,473.3426763000898,None,473.3426763000898,None,473.3426763000898,None,473.3426763000898,None,473.3426763000898,None,473.3426763000898,None,473.3426763000898,None,473.3426763000898,None,473.3426763000898,None,473.3426763000898,None,473.3426763000898,None,473.3426763000898,None,473.3426763000898,None,473.3426763000898,None,473.3426763000898,None,473.3426763000898,None,None,0,473.3426763000898,None,,,a,001,2020_Jun_02_1611,vSearchAlpha4,2020.1.3,60.43555908413729,
0.4,-0.2,0.2,-0.2,-0.4,0.0,0.4,0.2,0.0,0.0,None,None,-0.2,-0.4,b,0.0,-0.2,0.0,0.4,0.2,-0.4,-0.4,0.4,-0.2,-0.2,0.0,0.2,-0.2,0.2,0.2,0.2,-0.2,0.0,0.2,0.0,0.4,0.0,0.4,-0.4,,,,,,,,,0,14,14,14,,,,,,,,,,,,,,,,,,,,,,,,,,,,,,,,,,,,,,,,,,,,,,,,,,,,,,,,,,,,,,,,,,,,,,,,,,,,,,,476.36392639996484,477.37681540008634,477.35841370001435,None,477.35841370001435,None,477.35841370001435,None,477.35841370001435,None,477.35841370001435,None,477.35841370001435,None,477.35841370001435,None,477.35841370001435,None,477.35841370001435,None,477.35841370001435,None,477.35841370001435,None,477.35841370001435,None,477.35841370001435,None,477.35841370001435,None,477.35841370001435,None,477.35841370001435,None,477.35841370001435,None,477.35841370001435,None,477.35841370001435,None,None,0,477.35841370001435,None,,,a,001,2020_Jun_02_1611,vSearchAlpha4,2020.1.3,60.43555908413729,
-0.4,-0.2,0.4,-0.2,0.4,0.2,0.4,0.0,0.2,0.2,0.0,0.2,-0.4,-0.4,m,0.0,-0.4,0.2,0.4,-0.2,-0.4,-0.2,0.4,0.4,-0.4,-0.4,0.2,-0.4,0.0,-0.2,0.2,0.2,-0.4,0.0,-0.2,0.0,0.4,None,None,,,,,,,,,0,15,15,15,,,,,,,,,,,,,,,,,,,,,,,,,,,,,,,,,,,,,,,,,,,,,,,,,,,,,,,,,,,,,,,,,,,,,,,,,,,,,,,480.3653039999772,481.3754354000557,481.3570946000982,None,481.3570946000982,None,481.3570946000982,None,481.3570946000982,None,481.3570946000982,None,481.3570946000982,None,481.3570946000982,None,481.3570946000982,None,481.3570946000982,None,481.3570946000982,None,481.3570946000982,None,481.3570946000982,None,481.3570946000982,None,481.3570946000982,None,481.3570946000982,None,481.3570946000982,None,481.3570946000982,None,481.3570946000982,None,481.3570946000982,None,None,0,481.3570946000982,None,,,a,001,2020_Jun_02_1611,vSearchAlpha4,2020.1.3,60.43555908413729,
0.4,0.2,0.4,0.0,0.2,0.2,0.0,0.2,-0.4,-0.2,0.4,-0.2,-0.2,-0.4,m,0.4,-0.4,0.0,0.4,0.2,-0.4,-0.4,0.4,0.2,0.4,-0.4,0.2,-0.2,-0.2,-0.2,0.2,0.0,-0.2,0.0,-0.4,0.2,-0.2,None,None,,,,,,,,,0,16,16,16,,,,,,,,,,,,,,,,,,,,,,,,,,,,,,,,,,,,,,,,,,,,,,,,,,,,,,,,,,,,,,,,,,,,,,,,,,,,,,,484.36735059996136,485.373943899991,485.3549273998942,None,485.3549273998942,None,485.3549273998942,None,485.3549273998942,None,485.3549273998942,None,485.3549273998942,None,485.3549273998942,None,485.3549273998942,None,485.3549273998942,None,485.3549273998942,None,485.3549273998942,None,485.3549273998942,None,485.3549273998942,None,485.3549273998942,None,485.3549273998942,None,485.3549273998942,None,485.3549273998942,None,485.3549273998942,None,485.3549273998942,None,None,0,485.3549273998942,None,,,a,001,2020_Jun_02_1611,vSearchAlpha4,2020.1.3,60.43555908413729,
-0.4,-0.2,0.2,0.2,0.0,0.0,0.4,-0.2,0.4,0.2,-0.2,0.2,-0.2,-0.4,m,0.0,-0.4,0.2,0.4,0.2,-0.4,0.0,0.4,0.4,-0.4,-0.4,-0.4,0.2,0.0,0.4,0.0,-0.2,-0.2,-0.2,0.0,0.0,-0.2,None,None,,,,,,,,,0,17,17,17,,,,,,,,,,,,,,,,,,,,,,,,,,,,,,,,,,,,,,,,,,,,,,,,,,,,,,,,,,,,,,,,,,,,,,,,,,,,,,,488.36389899998903,489.3732497000601,489.35362419998273,None,489.35362419998273,None,489.35362419998273,None,489.35362419998273,None,489.35362419998273,None,489.35362419998273,None,489.35362419998273,None,489.35362419998273,None,489.35362419998273,None,489.35362419998273,None,489.35362419998273,None,489.35362419998273,None,489.35362419998273,None,489.35362419998273,None,489.35362419998273,None,489.35362419998273,None,489.35362419998273,None,489.35362419998273,None,489.35362419998273,None,None,0,489.35362419998273,None,,,a,001,2020_Jun_02_1611,vSearchAlpha4,2020.1.3,60.43555908413729,
0.4,0.2,-0.4,-0.2,0.4,0.0,0.0,0.2,0.0,0.0,-0.2,0.2,-0.2,-0.4,m,0.4,-0.4,0.2,0.4,0.2,-0.4,0.0,0.4,0.4,0.4,0.0,-0.4,-0.4,0.0,0.2,0.0,-0.4,0.4,-0.4,0.2,-0.2,-0.2,None,None,,,,,,,,,0,18,18,18,,,,,,,,,,,,,,,,,,,,,,,,,,,,,,,,,,,,,,,,,,,,,,,,,,,,,,,,,,,,,,,,,,,,,,,,,,,,,,,492.36410199990496,493.37202250002883,493.35365649987943,None,493.35365649987943,None,493.35365649987943,None,493.35365649987943,None,493.35365649987943,None,493.35365649987943,None,493.35365649987943,None,493.35365649987943,None,493.35365649987943,None,493.35365649987943,None,493.35365649987943,None,493.35365649987943,None,493.35365649987943,None,493.35365649987943,None,493.35365649987943,None,493.35365649987943,None,493.35365649987943,None,493.35365649987943,None,493.35365649987943,None,None,0,493.35365649987943,None,,,a,001,2020_Jun_02_1611,vSearchAlpha4,2020.1.3,60.43555908413729,
0.0,0.0,None,None,0.4,-0.2,-0.2,0.2,0.2,0.2,0.4,0.0,-0.4,-0.4,b,0.4,-0.4,0.0,0.4,-0.2,-0.4,-0.4,0.4,0.4,0.4,-0.4,0.2,0.0,-0.2,-0.4,-0.2,0.0,-0.4,0.2,-0.4,-0.4,0.0,0.4,0.2,,,,,,,,,0,19,19,19,,,,,,,,,,,,,,,,,,,,,,,,,,,,,,,,,,,,,,,,,,,,,,,,,,,,,,,,,,,,,,,,,,,,,,,,,,,,,,,496.36380419996567,497.37066649994813,497.351098400075,None,497.351098400075,None,497.351098400075,None,497.351098400075,None,497.351098400075,None,497.351098400075,None,497.351098400075,None,497.351098400075,None,497.351098400075,None,497.351098400075,None,497.351098400075,None,497.351098400075,None,497.351098400075,None,497.351098400075,None,497.351098400075,None,497.351098400075,None,497.351098400075,None,497.351098400075,None,497.351098400075,None,None,0,497.351098400075,None,,,a,001,2020_Jun_02_1611,vSearchAlpha4,2020.1.3,60.43555908413729,
None,None,-0.4,-0.4,-0.4,0.2,0.4,0.0,-0.4,-0.2,0.4,0.4,0.4,0.2,b,0.2,-0.4,-0.2,0.4,-0.2,0.0,0.0,-0.2,-0.2,-0.4,0.0,0.4,0.4,-0.2,-0.4,0.4,0.0,0.0,-0.2,0.2,0.2,0.0,0.2,-0.2,,,,,,,,,0,20,20,20,,,,,,,,,,,,,,,,,,,,,,,,,,,,,,,,,,,,,,,,,,,,,,,,,,,,,,,,,,,,,,,,,,,,,,,,,,,,,,,500.362038299907,501.36818010010757,501.3487690000329,None,501.3487690000329,None,501.3487690000329,None,501.3487690000329,None,501.3487690000329,None,501.3487690000329,None,501.3487690000329,None,501.3487690000329,None,501.3487690000329,None,501.3487690000329,None,501.3487690000329,None,501.3487690000329,None,501.3487690000329,None,501.3487690000329,None,501.3487690000329,None,501.3487690000329,None,501.3487690000329,None,501.3487690000329,None,501.3487690000329,None,None,0,501.3487690000329,None,,,a,001,2020_Jun_02_1611,vSearchAlpha4,2020.1.3,60.43555908413729,
0.2,-0.2,-0.4,0.0,-0.4,0.2,0.4,0.2,-0.4,-0.4,0.4,0.4,-0.4,-0.2,m,0.2,0.4,0.0,-0.2,0.2,0.0,0.0,-0.4,-0.2,-0.4,-0.2,0.4,-0.4,0.4,0.0,0.0,0.4,-0.2,-0.2,0.2,0.4,0.0,None,None,,,,,,,,,0,21,21,21,,,,,,,,,,,,,,,,,,,,,,,,,,,,,,,,,,,,,,,,,,,,,,,,,,,,,,,,,,,,,,,,,,,,,,,,,,,,,,,504.36186100007035,505.36521869990975,505.3457086000126,None,505.3457086000126,None,505.3457086000126,None,505.3457086000126,None,505.3457086000126,None,505.3457086000126,None,505.3457086000126,None,505.3457086000126,None,505.3457086000126,None,505.3457086000126,None,505.3457086000126,None,505.3457086000126,None,505.3457086000126,None,505.3457086000126,None,505.3457086000126,None,505.3457086000126,None,505.3457086000126,None,505.3457086000126,None,505.3457086000126,None,None,0,505.3457086000126,None,,,a,001,2020_Jun_02_1611,vSearchAlpha4,2020.1.3,60.43555908413729,
0.0,-0.4,-0.4,0.4,-0.4,0.0,0.4,-0.2,-0.4,-0.2,0.4,0.2,0.4,-0.4,b,0.2,0.4,-0.2,0.4,0.0,0.2,0.2,0.2,None,None,0.0,0.0,-0.2,0.0,0.2,-0.4,-0.2,-0.2,0.4,0.0,0.4,0.4,0.0,-0.2,,,,,,,,,0,22,22,22,,,,,,,,,,,,,,,,,,,,,,,,,,,,,,,,,,,,,,,,,,,,,,,,,,,,,,,,,,,,,,,,,,,,,,,,,,,,,,,508.3612192000728,509.3672545000445,509.34744710009545,None,509.34744710009545,None,509.34744710009545,None,509.34744710009545,None,509.34744710009545,None,509.34744710009545,None,509.34744710009545,None,509.34744710009545,None,509.34744710009545,None,509.34744710009545,None,509.34744710009545,None,509.34744710009545,None,509.34744710009545,None,509.34744710009545,None,509.34744710009545,None,509.34744710009545,None,509.34744710009545,None,509.34744710009545,None,509.34744710009545,None,None,0,509.34744710009545,None,,,a,001,2020_Jun_02_1611,vSearchAlpha4,2020.1.3,60.43555908413729,
0.2,-0.2,-0.4,0.4,-0.4,0.0,0.4,0.2,-0.4,-0.4,0.4,-0.2,None,None,b,0.0,0.0,0.2,0.4,-0.2,-0.4,-0.2,0.0,0.0,0.2,-0.4,-0.2,-0.2,0.4,0.0,-0.4,0.2,0.2,0.4,0.4,0.4,0.0,0.2,0.0,,,,,,,,,0,23,23,23,,,,,,,,,,,,,,,,,,,,,,,,,,,,,,,,,,,,,,,,,,,,,,,,,,,,,,,,,,,,,,,,,,,,,,,,,,,,,,,512.3595972000621,513.3649277000222,513.345843499992,None,513.345843499992,None,513.345843499992,None,513.345843499992,None,513.345843499992,None,513.345843499992,None,513.345843499992,None,513.345843499992,None,513.345843499992,None,513.345843499992,None,513.345843499992,None,513.345843499992,None,513.345843499992,None,513.345843499992,None,513.345843499992,None,513.345843499992,None,513.345843499992,None,513.345843499992,None,513.345843499992,None,None,0,513.345843499992,None,,,a,001,2020_Jun_02_1611,vSearchAlpha4,2020.1.3,60.43555908413729,
-0.2,-0.4,-0.4,0.4,-0.4,0.2,0.4,-0.2,-0.4,0.0,0.4,0.4,0.4,0.0,m,0.0,-0.2,0.2,0.4,-0.2,0.0,0.2,0.0,-0.2,-0.2,0.2,0.2,0.2,-0.2,0.0,0.2,-0.2,0.2,0.4,0.2,-0.2,0.4,None,None,,,,,,,,,0,24,24,24,,,,,,,,,,,,,,,,,,,,,,,,,,,,,,,,,,,,,,,,,,,,,,,,,,,,,,,,,,,,,,,,,,,,,,,,,,,,,,,516.3553903000429,517.3654897001106,517.3451630999334,None,517.3451630999334,None,517.3451630999334,None,517.3451630999334,None,517.3451630999334,None,517.3451630999334,None,517.3451630999334,None,517.3451630999334,None,517.3451630999334,None,517.3451630999334,None,517.3451630999334,None,517.3451630999334,None,517.3451630999334,None,517.3451630999334,None,517.3451630999334,None,517.3451630999334,None,517.3451630999334,None,517.3451630999334,None,517.3451630999334,None,None,0,517.3451630999334,None,,,a,001,2020_Jun_02_1611,vSearchAlpha4,2020.1.3,60.43555908413729,
0.2,0.4,0.0,0.4,-0.4,0.2,0.4,0.2,-0.4,0.0,0.4,0.4,0.2,0.2,b,-0.2,0.4,0.2,-0.2,0.2,-0.4,0.0,-0.4,0.2,0.0,-0.2,0.2,0.0,0.0,-0.2,-0.2,None,None,-0.4,-0.2,0.4,0.0,-0.2,-0.4,,,,,,,,,0,25,25,25,,,,,,,,,,,,,,,,,,,,,,,,,,,,,,,,,,,,,,,,,,,,,,,,,,,,,,,,,,,,,,,,,,,,,,,,,,,,,,,520.3586732000113,521.3662644000724,521.3449587000068,None,521.3449587000068,None,521.3449587000068,None,521.3449587000068,None,521.3449587000068,None,521.3449587000068,None,521.3449587000068,None,521.3449587000068,None,521.3449587000068,None,521.3449587000068,None,521.3449587000068,None,521.3449587000068,None,521.3449587000068,None,521.3449587000068,None,521.3449587000068,None,521.3449587000068,None,521.3449587000068,None,521.3449587000068,None,521.3449587000068,None,None,0,521.3449587000068,None,,,a,001,2020_Jun_02_1611,vSearchAlpha4,2020.1.3,60.43555908413729,
-0.2,-0.4,-0.4,0.0,-0.4,0.2,0.4,-0.2,-0.4,-0.4,0.4,0.4,-0.4,0.4,m,0.0,0.4,0.2,0.0,0.2,0.2,0.2,0.4,0.2,-0.4,-0.2,-0.2,0.0,-0.2,0.2,-0.2,-0.4,-0.2,-0.2,0.2,0.0,0.2,None,None,,,,,,,,,0,26,26,26,,,,,,,,,,,,,,,,,,,,,,,,,,,,,,,,,,,,,,,,,,,,,,,,,,,,,,,,,,,,,,,,,,,,,,,,,,,,,,,524.3600208999123,525.3634721999988,525.3432159000076,None,525.3432159000076,None,525.3432159000076,None,525.3432159000076,None,525.3432159000076,None,525.3432159000076,None,525.3432159000076,None,525.3432159000076,None,525.3432159000076,None,525.3432159000076,None,525.3432159000076,None,525.3432159000076,None,525.3432159000076,None,525.3432159000076,None,525.3432159000076,None,525.3432159000076,None,525.3432159000076,None,525.3432159000076,None,525.3432159000076,None,None,0,525.3432159000076,None,,,a,001,2020_Jun_02_1611,vSearchAlpha4,2020.1.3,60.43555908413729,
0.2,-0.4,-0.4,0.0,-0.4,0.2,0.4,-0.2,-0.4,-0.2,0.4,0.4,0.0,-0.2,b,None,None,0.2,0.4,0.2,0.0,0.2,-0.2,0.0,0.2,0.2,0.2,0.4,0.2,-0.2,0.4,-0.2,0.2,-0.2,0.0,0.4,0.0,-0.2,-0.2,,,,,,,,,0,27,27,27,,,,,,,,,,,,,,,,,,,,,,,,,,,,,,,,,,,,,,,,,,,,,,,,,,,,,,,,,,,,,,,,,,,,,,,,,,,,,,,528.353873899905,529.3641375999432,529.3423973999452,None,529.3423973999452,None,529.3423973999452,None,529.3423973999452,None,529.3423973999452,None,529.3423973999452,None,529.3423973999452,None,529.3423973999452,None,529.3423973999452,None,529.3423973999452,None,529.3423973999452,None,529.3423973999452,None,529.3423973999452,None,529.3423973999452,None,529.3423973999452,None,529.3423973999452,None,529.3423973999452,None,529.3423973999452,None,529.3423973999452,None,None,0,529.3423973999452,None,,,a,001,2020_Jun_02_1611,vSearchAlpha4,2020.1.3,60.43555908413729,
0.2,-0.2,-0.4,0.0,-0.4,0.2,0.4,0.2,-0.4,-0.4,0.4,0.4,0.4,0.0,b,0.0,0.2,None,None,0.2,0.0,-0.2,0.4,-0.2,0.0,-0.2,-0.4,0.0,0.4,-0.4,-0.2,-0.2,-0.2,0.0,-0.2,0.4,-0.4,-0.4,0.4,,,,,,,,,0,28,28,28,,,,,,,,,,,,,,,,,,,,,,,,,,,,,,,,,,,,,,,,,,,,,,,,,,,,,,,,,,,,,,,,,,,,,,,,,,,,,,,532.3661827999167,533.3770347998943,533.3587205000222,None,533.3587205000222,None,533.3587205000222,None,533.3587205000222,None,533.3587205000222,None,533.3587205000222,None,533.3587205000222,None,533.3587205000222,None,533.3587205000222,None,533.3587205000222,None,533.3587205000222,None,533.3587205000222,None,533.3587205000222,None,533.3587205000222,None,533.3587205000222,None,533.3587205000222,None,533.3587205000222,None,533.3587205000222,None,533.3587205000222,None,None,0,533.3587205000222,None,,,a,001,2020_Jun_02_1611,vSearchAlpha4,2020.1.3,60.43555908413729,
0.2,-0.4,-0.4,0.4,-0.4,0.0,0.4,0.2,-0.4,-0.4,-0.4,0.2,0.4,0.0,m,-0.2,0.0,0.0,-0.4,-0.2,0.2,0.2,0.0,0.2,0.4,-0.2,-0.4,0.2,0.2,0.2,-0.2,0.4,0.4,0.4,-0.2,-0.4,-0.2,None,None,,,,,,,,,0,29,29,29,,,,,,,,,,,,,,,,,,,,,,,,,,,,,,,,,,,,,,,,,,,,,,,,,,,,,,,,,,,,,,,,,,,,,,,,,,,,,,,536.355285000056,537.362094799988,537.3403425000142,None,537.3403425000142,None,537.3403425000142,None,537.3403425000142,None,537.3403425000142,None,537.3403425000142,None,537.3403425000142,None,537.3403425000142,None,537.3403425000142,None,537.3403425000142,None,537.3403425000142,None,537.3403425000142,None,537.3403425000142,None,537.3403425000142,None,537.3403425000142,None,537.3403425000142,None,537.3403425000142,None,537.3403425000142,None,537.3403425000142,None,None,0,537.3403425000142,None,,,a,001,2020_Jun_02_1611,vSearchAlpha4,2020.1.3,60.43555908413729,
0.2,-0.2,-0.4,0.4,-0.4,0.2,0.4,0.2,-0.4,0.0,0.4,0.4,0.4,0.0,m,0.0,-0.2,0.2,0.0,0.0,-0.4,-0.2,0.4,0.2,0.2,-0.4,-0.2,0.0,0.4,-0.2,0.2,-0.2,0.0,-0.2,-0.2,0.4,-0.2,None,None,,,,,,,,,0,30,30,30,,,,,,,,,,,,,,,,,,,,,,,,,,,,,,,,,,,,,,,,,,,,,,,,,,,,,,,,,,,,,,,,,,,,,,,,,,,,,,,540.3532316999044,541.3626665000338,541.340900399955,540.3532316999044,541.340900399955,540.3532316999044,541.340900399955,540.3532316999044,541.340900399955,540.3532316999044,541.340900399955,540.3532316999044,541.340900399955,540.3532316999044,541.340900399955,540.3532316999044,541.340900399955,540.3532316999044,541.340900399955,540.3532316999044,541.340900399955,540.3532316999044,541.340900399955,540.3532316999044,541.340900399955,540.3532316999044,541.340900399955,540.3532316999044,541.340900399955,540.3532316999044,541.340900399955,540.3532316999044,541.340900399955,540.3532316999044,541.340900399955,540.3532316999044,541.340900399955,540.3532316999044,541.340900399955,540.3532316999044,None,0,541.340900399955,540.3532316999044,,,a,001,2020_Jun_02_1611,vSearchAlpha4,2020.1.3,60.43555908413729,
0.2,-0.4,-0.4,0.4,-0.4,0.2,0.4,0.2,-0.4,-0.2,0.4,0.4,0.4,-0.4,b,-0.2,0.4,0.0,0.2,None,None,0.2,0.0,0.0,-0.2,-0.4,0.0,0.4,0.0,-0.2,0.0,0.0,0.0,-0.2,-0.2,-0.2,-0.4,0.4,0.0,,,,,,,,,0,31,31,31,,,,,,,,,,,,,,,,,,,,,,,,,,,,,,,,,,,,,,,,,,,,,,,,,,,,,,,,,,,,,,,,,,,,,,,,,,,,,,,544.3511771000922,545.3626252999529,545.3418197000865,None,545.3418197000865,None,545.3418197000865,None,545.3418197000865,None,545.3418197000865,None,545.3418197000865,None,545.3418197000865,None,545.3418197000865,None,545.3418197000865,None,545.3418197000865,None,545.3418197000865,None,545.3418197000865,None,545.3418197000865,None,545.3418197000865,None,545.3418197000865,None,545.3418197000865,None,545.3418197000865,None,545.3418197000865,None,545.3418197000865,None,None,0,545.3418197000865,None,,,a,001,2020_Jun_02_1611,vSearchAlpha4,2020.1.3,60.43555908413729,
0.0,-0.4,-0.4,0.4,-0.4,0.0,0.4,-0.2,-0.4,-0.2,0.4,0.2,-0.4,0.2,m,0.2,0.4,-0.2,0.0,0.2,0.0,-0.2,-0.4,0.0,0.0,-0.4,-0.4,0.2,-0.4,0.4,0.0,0.4,0.4,0.0,0.4,0.4,-0.4,None,None,,,,,,,,,0,32,32,32,,,,,,,,,,,,,,,,,,,,,,,,,,,,,,,,,,,,,,,,,,,,,,,,,,,,,,,,,,,,,,,,,,,,,,,,,,,,,,,548.3648985999171,549.3757183998823,549.3576887000818,None,549.3576887000818,None,549.3576887000818,None,549.3576887000818,None,549.3576887000818,None,549.3576887000818,None,549.3576887000818,None,549.3576887000818,None,549.3576887000818,None,549.3576887000818,None,549.3576887000818,None,549.3576887000818,None,549.3576887000818,None,549.3576887000818,None,549.3576887000818,None,549.3576887000818,None,549.3576887000818,None,549.3576887000818,None,549.3576887000818,None,None,0,549.3576887000818,None,,,a,001,2020_Jun_02_1611,vSearchAlpha4,2020.1.3,60.43555908413729,
-0.2,-0.2,-0.4,0.4,-0.4,0.2,0.4,0.2,-0.4,0.0,0.4,0.0,0.0,0.4,b,None,None,-0.2,-0.4,0.0,-0.4,0.2,0.0,0.2,0.2,-0.4,-0.4,-0.4,-0.2,-0.2,0.0,-0.2,0.2,0.2,-0.4,0.0,-0.2,0.4,0.4,,,,,,,,,0,33,33,33,,,,,,,,,,,,,,,,,,,,,,,,,,,,,,,,,,,,,,,,,,,,,,,,,,,,,,,,,,,,,,,,,,,,,,,,,,,,,,,552.3650342000183,553.3760333000682,553.3581369000021,None,553.3581369000021,None,553.3581369000021,None,553.3581369000021,None,553.3581369000021,None,553.3581369000021,None,553.3581369000021,None,553.3581369000021,None,553.3581369000021,None,553.3581369000021,None,553.3581369000021,None,553.3581369000021,None,553.3581369000021,None,553.3581369000021,None,553.3581369000021,None,553.3581369000021,None,553.3581369000021,None,553.3581369000021,None,553.3581369000021,None,None,0,553.3581369000021,None,,,a,001,2020_Jun_02_1611,vSearchAlpha4,2020.1.3,60.43555908413729,
-0.2,-0.2,-0.4,0.4,-0.4,0.0,0.4,0.2,-0.4,-0.4,0.4,-0.2,0.4,0.4,m,0.2,0.4,0.0,0.2,0.2,0.0,0.2,-0.4,-0.2,0.4,0.0,-0.4,-0.2,0.2,0.2,0.2,-0.2,0.0,0.2,-0.2,0.4,-0.4,None,None,,,,,,,,,0,34,34,34,,,,,,,,,,,,,,,,,,,,,,,,,,,,,,,,,,,,,,,,,,,,,,,,,,,,,,,,,,,,,,,,,,,,,,,,,,,,,,,556.3666415999178,557.3727551999036,557.3543620000128,None,557.3543620000128,None,557.3543620000128,None,557.3543620000128,None,557.3543620000128,None,557.3543620000128,None,557.3543620000128,None,557.3543620000128,None,557.3543620000128,None,557.3543620000128,None,557.3543620000128,None,557.3543620000128,None,557.3543620000128,None,557.3543620000128,None,557.3543620000128,None,557.3543620000128,None,557.3543620000128,None,557.3543620000128,None,557.3543620000128,None,None,0,557.3543620000128,None,,,a,001,2020_Jun_02_1611,vSearchAlpha4,2020.1.3,60.43555908413729,
0.2,-0.4,-0.4,0.0,-0.4,0.2,0.4,-0.2,-0.4,-0.2,0.4,0.4,-0.4,-0.4,m,-0.2,0.2,0.2,0.0,0.0,0.4,-0.2,0.4,0.2,-0.2,0.2,0.2,-0.2,0.0,-0.2,-0.2,0.2,0.4,0.0,-0.2,0.0,-0.4,None,None,,,,,,,,,0,35,35,35,,,,,,,,,,,,,,,,,,,,,,,,,,,,,,,,,,,,,,,,,,,,,,,,,,,,,,,,,,,,,,,,,,,,,,,,,,,,,,,560.3687712000683,561.3955469999928,561.3726602999959,None,561.3726602999959,None,561.3726602999959,None,561.3726602999959,None,561.3726602999959,None,561.3726602999959,None,561.3726602999959,None,561.3726602999959,None,561.3726602999959,None,561.3726602999959,None,561.3726602999959,None,561.3726602999959,None,561.3726602999959,None,561.3726602999959,None,561.3726602999959,None,561.3726602999959,None,561.3726602999959,None,561.3726602999959,None,561.3726602999959,None,None,0,561.3726602999959,None,,,a,001,2020_Jun_02_1611,vSearchAlpha4,2020.1.3,60.43555908413729,
-0.2,-0.2,-0.4,0.4,-0.4,0.0,0.4,0.2,-0.4,-0.4,0.4,0.0,0.4,-0.2,b,0.2,0.0,0.0,0.0,None,None,-0.2,0.0,0.2,0.4,-0.4,0.2,-0.2,-0.4,-0.2,0.4,0.0,-0.2,0.0,-0.4,0.2,-0.2,0.2,0.2,,,,,,,,,0,36,36,36,,,,,,,,,,,,,,,,,,,,,,,,,,,,,,,,,,,,,,,,,,,,,,,,,,,,,,,,,,,,,,,,,,,,,,,,,,,,,,,564.3634353000671,565.3713803999126,565.3519806000404,None,565.3519806000404,None,565.3519806000404,None,565.3519806000404,None,565.3519806000404,None,565.3519806000404,None,565.3519806000404,None,565.3519806000404,None,565.3519806000404,None,565.3519806000404,None,565.3519806000404,None,565.3519806000404,None,565.3519806000404,None,565.3519806000404,None,565.3519806000404,None,565.3519806000404,None,565.3519806000404,None,565.3519806000404,None,565.3519806000404,None,None,0,565.3519806000404,None,,,a,001,2020_Jun_02_1611,vSearchAlpha4,2020.1.3,60.43555908413729,
-0.2,-0.2,-0.4,0.0,-0.4,0.2,0.4,0.2,-0.4,0.4,0.4,0.4,None,None,b,-0.4,-0.2,0.2,-0.4,-0.2,0.2,0.2,0.0,0.0,0.4,-0.4,-0.4,0.0,-0.2,0.4,-0.2,0.0,-0.4,0.2,0.0,0.0,0.0,0.4,0.0,,,,,,,,,0,37,37,37,,,,,,,,,,,,,,,,,,,,,,,,,,,,,,,,,,,,,,,,,,,,,,,,,,,,,,,,,,,,,,,,,,,,,,,,,,,,,,,568.3613070000429,569.38296670001,569.3615347000305,None,569.3615347000305,None,569.3615347000305,None,569.3615347000305,None,569.3615347000305,None,569.3615347000305,None,569.3615347000305,None,569.3615347000305,None,569.3615347000305,None,569.3615347000305,None,569.3615347000305,None,569.3615347000305,None,569.3615347000305,None,569.3615347000305,None,569.3615347000305,None,569.3615347000305,None,569.3615347000305,None,569.3615347000305,None,569.3615347000305,None,None,0,569.3615347000305,None,,,a,001,2020_Jun_02_1611,vSearchAlpha4,2020.1.3,60.43555908413729,
0.0,-0.2,-0.4,0.4,-0.4,0.2,0.4,0.2,-0.4,0.0,0.2,0.4,0.4,0.0,b,None,None,0.0,0.4,-0.2,-0.2,0.2,0.2,0.2,-0.4,-0.4,-0.4,0.2,0.0,-0.2,0.2,0.4,-0.2,-0.2,0.0,0.0,0.2,0.0,-0.4,,,,,,,,,0,38,38,38,,,,,,,,,,,,,,,,,,,,,,,,,,,,,,,,,,,,,,,,,,,,,,,,,,,,,,,,,,,,,,,,,,,,,,,,,,,,,,,572.360322299879,573.3684366000816,573.3490247000009,None,573.3490247000009,None,573.3490247000009,None,573.3490247000009,None,573.3490247000009,None,573.3490247000009,None,573.3490247000009,None,573.3490247000009,None,573.3490247000009,None,573.3490247000009,None,573.3490247000009,None,573.3490247000009,None,573.3490247000009,None,573.3490247000009,None,573.3490247000009,None,573.3490247000009,None,573.3490247000009,None,573.3490247000009,None,573.3490247000009,None,None,0,573.3490247000009,None,,,a,001,2020_Jun_02_1611,vSearchAlpha4,2020.1.3,60.43555908413729,
-0.2,-0.4,-0.4,0.4,-0.4,0.0,0.4,-0.2,-0.4,-0.4,0.4,0.2,0.4,0.0,b,0.2,0.0,0.0,0.0,None,None,0.2,-0.4,-0.2,0.4,0.0,-0.4,-0.2,0.0,0.2,0.2,-0.4,-0.2,-0.4,0.2,-0.2,-0.2,0.2,-0.2,,,,,,,,,0,39,39,39,,,,,,,,,,,,,,,,,,,,,,,,,,,,,,,,,,,,,,,,,,,,,,,,,,,,,,,,,,,,,,,,,,,,,,,,,,,,,,,576.3599541001022,577.3680815000553,577.347564100055,None,577.347564100055,None,577.347564100055,None,577.347564100055,None,577.347564100055,None,577.347564100055,None,577.347564100055,None,577.347564100055,None,577.347564100055,None,577.347564100055,None,577.347564100055,None,577.347564100055,None,577.347564100055,None,577.347564100055,None,577.347564100055,None,577.347564100055,None,577.347564100055,None,577.347564100055,None,577.347564100055,None,None,0,577.347564100055,None,,,a,001,2020_Jun_02_1611,vSearchAlpha4,2020.1.3,60.43555908413729,
,,,,,,,,,,,,,,,,,,,,,,,,,,,,,,,,,,,,,,,,,,,,,,,,,,,,,,,,,,,,,,,,,,,,,,,,,,,,,,,,,,,,,,,,,,,,,,,,,,,,,,,,,,,,,,,,,,,,,,,,,,,,,,,,,,,,,,,,,,,,,,,,,,,,,,,,,,,,,,,,,,,,,,,,,,,,,580.346874800045,None,,,,,,,
